TIMECODE,ACC_X,ACC_Y,ACC_Z,GYR_X,GYR_Y,GYR_Z,ECG_I,ECG_II,ECG_III,TAG
,0.177,-0.032,0.966,16.235,7.995,-0.489,0,0,0,
,0.192,0.005,0.987,15.258,-2.381,-8.057,0,0,0,
,0.199,-0.006,0.979,20.019,-8.851,-20.813,0,0,0,
,0.194,-0.037,0.971,-8.301,-15.87,-28.504,0,0,0,
,0.194,-0.02,0.973,-31.373,-24.109,-29.114,0,0,0,
,0.186,-0.021,0.992,-37.171,-29.297,-31.006,0,0,0,
,0.178,-0.007,0.997,-44.19,-31.128,-27.527,0,0,0,
,0.172,-0.011,1.001,-29.908,-29.725,-27.527,0,0,0,
,0.162,-0.037,0.989,-36.316,-21.18,-29.175,0,0,0,
,0.18,-0.013,1.014,-33.387,-27.161,-21.363,0,0,0,
,0.178,-0.02,0.991,-20.447,-13.855,-15.748,0,0,0,
,0.177,-0.043,0.986,-23.438,-10.987,-6.043,0,0,0,
,0.18,0.002,1.012,-25.757,-5.921,-3.418,0,0,0,
,0.174,-0.021,0.985,-15.503,1.892,-2.32,0,0,0,
,0.146,-0.019,1.002,-27.1,5.554,2.807,0,0,0,
,0.171,0.023,1.013,-9.217,19.043,-1.77,0,0,0,
,0.177,-0.017,1.008,1.709,30.212,-4.334,0,0,0,
,0.191,0.002,1.003,-9.156,34.118,-8.789,0,0,0,
,0.179,-0.021,0.977,-17.395,36.499,-8.606,0,0,0,
,0.188,-0.007,0.974,-36.499,28.259,-9.705,0,0,0,
,0.186,0.007,0.982,-26.795,28.259,-7.996,0,0,0,
,0.176,-0.028,0.966,-41.26,18.005,-10.315,0,0,0,
,0.178,0.003,0.974,-73.243,12.268,-12.818,0,0,0,
,0.165,0.018,0.982,-92.347,5.859,-28.443,0,0,0,
,0.156,0.027,0.97,-95.643,6.469,-35.95,0,0,0,
,0.123,0.025,0.946,-105.042,9.155,-49.378,0,0,0,
,0.134,0.015,0.985,-86.243,15.014,-52.491,0,0,0,
,0.166,-0.017,1.027,-46.814,20.141,-50.354,0,0,0,
,0.153,-0.04,1.007,-14.954,26.489,-38.086,0,0,0,
,0.153,-0.099,1.024,-3.907,26.001,-21.851,0,0,0,
,0.205,-0.037,1.05,21.301,24.658,-2.747,0,0,0,
,0.21,-0.022,1.001,32.043,21.85,15.93,0,0,0,
,0.21,-0.009,0.975,14.404,15.258,26.428,0,0,0,
,0.195,0.017,0.977,4.577,7.08,31.738,0,0,0,
,0.182,0.001,0.979,-2.381,-7.142,25.756,0,0,0,
,0.186,0.019,0.988,-14.161,-13.123,18.005,0,0,0,
,0.176,0.025,0.963,-28.382,-29.053,7.263,0,0,0,
,0.158,0.009,0.97,-42.847,-34.607,-2.93,0,0,0,
,0.157,0.027,0.984,-50.843,-42.237,-9.827,0,0,0,
,0.147,-0.012,0.966,-45.472,-44.983,-13.001,0,0,0,
,0.16,-0.037,0.997,-76.233,-60.303,-8.484,0,0,0,
,0.161,-0.012,1.009,-67.444,-56.58,-7.935,0,0,0,
,0.176,0.014,1.038,-63.599,-54.871,-6.043,0,0,0,
,0.176,0.024,1.021,-53.162,-44.068,-4.944,0,0,0,
,0.176,0.008,1.003,-60.12,-38.208,-1.831,0,0,0,
,0.155,0.018,0.984,-73.06,-40.894,-0.794,0,0,0,
,0.154,0.015,1.014,-70.069,-34.302,-0.428,0,0,0,
,0.16,0.03,1.016,-66.529,-27.344,4.333,0,0,0,
,0.164,0.02,1.021,-87.708,-12.94,4.089,0,0,0,
,0.172,0.022,1.01,-105.53,-19.715,6.103,0,0,0,
,0.171,0.016,1.021,-120.789,-22.095,10.742,0,0,0,
,0.192,0.029,1.033,-157.166,-19.104,19.653,0,0,0,
,0.165,0.036,1.047,-175.538,-15.076,27.832,0,0,0,
,0.104,-0.048,0.995,-242.859,-24.659,24.963,0,0,0,
,0.088,0.034,1.01,-266.114,-35.279,19.104,0,0,0,
,0.063,0.09,1.016,-219.91,-14.039,11.108,0,0,0,
,0.112,0.091,0.998,-197.998,-6.592,8.056,0,0,0,
,0.131,0.106,1.013,-220.52,-13.611,8.606,0,0,0,
,0.128,0.121,0.998,-199.402,-14.1,-2.503,0,0,0,
,0.139,0.155,0.979,-149.109,-1.831,-6.775,0,0,0,
,0.133,0.173,0.979,-106.69,10.376,-7.508,0,0,0,
,0.125,0.206,0.996,-34.729,31.494,-14.222,0,0,0,
,0.124,0.181,0.99,40.893,57.739,-14.039,0,0,0,
,0.122,0.135,0.979,85.327,71.167,-9.217,0,0,0,
,0.107,0.049,0.949,65.124,67.627,-12.33,0,0,0,
,0.094,0.09,0.966,64.941,65.063,-0.245,0,0,0,
,0.097,0.094,0.969,108.215,75.195,-15.686,0,0,0,
,0.106,0.109,0.961,155.578,90.148,-14.283,0,0,0,
,0.123,0.127,0.979,178.283,104.309,-14.283,0,0,0,
,0.133,0.116,0.975,191.467,109.68,-14.466,0,0,0,
,0.121,0.08,0.98,190.49,110.351,-18.86,0,0,0,
,0.135,0.066,0.99,174.255,110.107,-32.471,0,0,0,
,0.129,0.057,0.999,153.381,103.698,-37.049,0,0,0,
,0.134,0.055,0.993,121.215,96.13,-42.298,0,0,0,
,0.14,0.057,0.983,93.872,89.111,-44.373,0,0,0,
,0.141,0.058,0.971,85.205,87.707,-47.12,0,0,0,
,0.142,0.044,0.955,89.721,83.007,-51.941,0,0,0,
,0.126,0.028,0.947,98.877,80.688,-50.415,0,0,0,
,0.11,0.02,0.957,111.511,76.538,-53.528,0,0,0,
,0.134,0.024,0.963,123.779,77.087,-59.327,0,0,0,
,0.168,0.009,0.981,135.986,63.049,-64.881,0,0,0,
,0.239,-0.011,0.994,108.459,46.814,-72.144,0,0,0,
,0.299,-0.034,0.997,45.349,18.371,-77.332,0,0,0,
,0.316,-0.025,0.994,-10.865,-15.198,-73.426,0,0,0,
,0.318,-0.006,0.985,-43.213,-23.621,-69.275,0,0,0,
,0.295,0.015,0.971,-69.947,-37.598,-59.388,0,0,0,
,0.216,0.01,0.98,-78.186,-43.457,-44.739,0,0,0,
,0.187,-0.01,0.976,-68.543,-47.547,-34.424,0,0,0,
,0.144,-0.022,0.97,-59.998,-62.195,-20.264,0,0,0,
,0.1,-0.017,0.96,-61.28,-72.022,0.122,0,0,0,
,0.063,-0.006,0.951,-62.317,-70.374,16.784,0,0,0,
,0.041,-0.009,0.97,-34.485,-57.373,13.488,0,0,0,
,0.053,-0.019,0.986,-5.982,-42.115,8.728,0,0,0,
,0.078,-0.008,0.993,-30.884,-41.687,1.22,0,0,0,
,0.107,0.037,1.002,-53.223,-50.599,-4.212,0,0,0,
,0.149,0.073,1.002,-35.767,-55.726,-9.339,0,0,0,
,0.197,0.058,0.98,-14.161,-61.402,-18.006,0,0,0,
,0.233,0.025,0.991,-13.062,-62.012,-17.395,0,0,0,
,0.248,0,0.994,-42.908,-68.787,-10.926,0,0,0,
,0.209,0.001,1.007,-74.097,-86.243,2.136,0,0,0,
,0.162,0,1.003,-98.389,-99.976,13,0,0,0,
,0.117,0.002,1.004,-89.356,-97.718,23.986,0,0,0,
,0.102,0.004,0.993,-71.106,-91.309,28.198,0,0,0,
,0.099,0.025,1.005,-55.054,-86.182,33.752,0,0,0,
,0.104,0.039,1.002,-57.801,-80.384,33.996,0,0,0,
,0.093,0.035,1.006,-70.191,-65.674,28.381,0,0,0,
,0.099,0.057,1.013,-80.628,-50.477,20.263,0,0,0,
,0.099,0.087,1.023,-77.881,-43.396,14.038,0,0,0,
,0.112,0.081,1.055,-57.557,-36.805,-10.926,0,0,0,
,0.109,0.043,1.014,-55.848,-33.509,-10.376,0,0,0,
,0.085,0.033,0.978,-71.9,-26.062,-6.409,0,0,0,
,0.08,0.053,0.995,-61.341,-20.691,-2.564,0,0,0,
,0.082,0.068,1.015,-20.569,-7.508,2.441,0,0,0,
,0.119,0.061,1.042,19.592,5.859,2.563,0,0,0,
,0.14,0.055,1.038,21.789,4.089,0.122,0,0,0,
,0.142,0.068,1.02,0.061,-2.991,-4.029,0,0,0,
,0.121,0.077,1.002,-20.264,0.793,-13.55,0,0,0,
,0.119,0.081,1.009,-22.828,0.854,-24.292,0,0,0,
,0.124,0.074,1.02,-24.537,5.065,-32.715,0,0,0,
,0.107,0.057,1.011,-38.025,8.056,-40.833,0,0,0,
,0.09,0.059,1.008,-51.575,5.004,-42.725,0,0,0,
,0.072,0.055,1.002,-44.434,12.817,-37.598,0,0,0,
,0.095,0.041,0.996,-10.987,20.202,-27.222,0,0,0,
,0.099,0.05,0.984,-11.231,13.732,-23.377,0,0,0,
,0.105,0.077,0.995,-6.531,12.878,-25.025,0,0,0,
,0.123,0.088,1.01,2.502,13.916,-27.466,0,0,0,
,0.121,0.06,1.003,-4.639,7.141,-36.072,0,0,0,
,0.104,0.056,1.003,-29.725,1.831,-44.922,0,0,0,
,0.09,0.066,1.004,-38.147,-0.855,-46.265,0,0,0,
,0.067,0.044,0.988,-35.95,0.366,-61.89,0,0,0,
,0.086,0.055,0.995,-31.067,3.356,-51.697,0,0,0,
,0.085,0.053,1.004,-19.165,3.723,-49.5,0,0,0,
,0.088,0.044,1.002,-17.701,6.652,-45.105,0,0,0,
,0.094,0.05,0.992,-10.01,5.371,-25.94,0,0,0,
,0.085,0.056,0.998,-3.968,3.784,-19.837,0,0,0,
,0.089,0.06,1.01,4.76,9.704,-16.785,0,0,0,
,0.1,0.05,1.015,9.948,12.939,-16.358,0,0,0,
,0.064,0.034,0.999,-3.724,17.089,-19.654,0,0,0,
,0.106,0.088,1.017,-3.113,33.386,-29.786,0,0,0,
,0.099,0.053,1.013,3.906,36.01,-34.058,0,0,0,
,0.122,0.044,1.008,-15.076,36.315,-35.523,0,0,0,
,0.113,0.029,0.998,-6.348,34.668,-34.668,0,0,0,
,0.105,0.054,0.99,-18.189,27.71,-31.25,0,0,0,
,0.094,0.077,0.992,-10.743,21.972,-30.823,0,0,0,
,0.083,0.054,0.99,-7.019,21.24,-36.56,0,0,0,
,0.085,0.054,1.003,-5.921,19.775,-46.326,0,0,0,
,0.104,0.067,1.009,-12.207,20.324,-52.247,0,0,0,
,0.102,0.059,1,-12.513,18.066,-55.97,0,0,0,
,0.113,0.059,1.003,-23.255,11.474,-55.115,0,0,0,
,0.101,0.023,0.99,-26.123,6.042,-49.012,0,0,0,
,0.099,0.016,0.961,-42.664,-14.405,-43.519,0,0,0,
,0.097,0.039,0.964,-43.213,-36.988,-36.683,0,0,0,
,0.113,0.071,0.974,-39.795,-57.679,-26.185,0,0,0,
,0.096,0.063,0.982,-28.931,-72.632,-17.334,0,0,0,
,0.101,0.047,1.002,-25.086,-77.027,-13.672,0,0,0,
,0.083,0.047,1.015,-27.222,-75.318,-8.24,0,0,0,
,0.052,0.04,1.024,-24.109,-55.787,-5.31,0,0,0,
,0.08,0.061,1.042,4.943,7.446,-8.667,0,0,0,
,0.084,0.048,1.026,12.329,29.174,-7.081,0,0,0,
,0.075,0.03,1.012,4.211,36.987,-5.555,0,0,0,
,0.089,0.052,1.006,-3.235,33.691,-1.831,0,0,0,
,0.09,0.059,0.994,0.549,29.724,3.295,0,0,0,
,0.102,0.072,1.004,5.188,28.869,4.333,0,0,0,
,0.088,0.061,0.996,1.098,26.794,-2.32,0,0,0,
,0.075,0.052,1.006,-7.325,21.667,-14.039,0,0,0,
,0.076,0.071,1.013,-12.635,20.996,-22.278,0,0,0,
,0.089,0.061,1.003,-16.724,18.066,-24.72,0,0,0,
,0.094,0.048,0.992,-24.659,7.995,-29.236,0,0,0,
,0.077,0.037,0.971,-35.889,-17.945,-28.382,0,0,0,
,0.057,0.046,0.978,-44.434,-31.373,-27.649,0,0,0,
,0.064,0.08,0.997,-37.964,-38.453,-26.368,0,0,0,
,0.06,0.074,1.001,-24.292,-38.758,-24.842,0,0,0,
,0.073,0.052,1.005,-26.612,-39.795,-29.175,0,0,0,
,0.063,0.039,0.997,-39.002,-42.847,-33.081,0,0,0,
,0.068,0.037,1,-48.951,-42.359,-35.645,0,0,0,
,0.067,0.08,1.019,-52.002,-37.415,-31.067,0,0,0,
,0.071,0.079,1.029,-16.541,-21.058,-24.72,0,0,0,
,0.04,0.026,0.993,-17.212,-15.564,-14.649,0,0,0,
,0.045,0.021,0.985,-27.588,-10.193,-9.827,0,0,0,
,0.06,0.056,1.023,-27.955,-13.062,-1.831,0,0,0,
,0.065,0.046,0.998,-10.682,-3.296,9.338,0,0,0,
,0.075,0.073,1.012,-11.719,-0.977,2.929,0,0,0,
,0.085,0.088,1.032,-6.836,6.591,-5.555,0,0,0,
,0.088,0.084,1.045,1.831,16.967,-15.32,0,0,0,
,0.072,0.064,1.037,-7.019,33.935,-16.48,0,0,0,
,0.069,0.054,1.024,-16.114,41.626,-22.644,0,0,0,
,0.064,0.061,1.021,-18.189,50.231,-24.048,0,0,0,
,0.057,0.042,1.012,-6.348,57.067,-19.41,0,0,0,
,0.055,0.042,1.003,-5.982,62.377,-15.87,0,0,0,
,0.043,0.043,1.009,-3.418,69.458,-7.996,0,0,0,
,0.038,0.06,0.998,-0.733,71.044,-6.226,0,0,0,
,0.037,0.073,0.998,0.976,75.866,-2.137,0,0,0,
,0.046,0.069,1,7.629,74.279,0.549,0,0,0,
,0.067,0.07,1.003,20.324,75.378,-3.907,0,0,0,
,0.077,0.056,0.998,20.202,78.857,-9.034,0,0,0,
,0.084,0.068,1.008,16.54,74.646,-16.663,0,0,0,
,0.097,0.085,1.006,6.164,76.171,-23.316,0,0,0,
,0.086,0.069,1.013,5.981,74.707,-31.678,0,0,0,
,0.114,0.068,1.022,17.089,82.214,-45.716,0,0,0,
,0.11,0.042,1.014,17.395,84.228,-47.73,0,0,0,
,0.121,0.052,1.02,9.46,84.167,-52.308,0,0,0,
,0.138,0.073,1.018,11.779,82.58,-53.711,0,0,0,
,0.128,0.057,1.03,20.202,80.444,-53.833,0,0,0,
,0.139,0.057,1.032,34.851,81.726,-55.298,0,0,0,
,0.127,0.051,1.023,55.847,77.392,-56.641,0,0,0,
,0.104,0.037,1.021,68.603,88.623,-52.979,0,0,0,
,0.098,0.042,1.025,75.927,102.234,-57.496,0,0,0,
,0.112,0.068,1.065,79.773,114.99,-61.28,0,0,0,
,0.102,0.109,1.015,130.798,125.305,-57.801,0,0,0,
,0.124,0.042,1.128,153.564,134.765,-59.571,0,0,0,
,0.132,0.056,1.023,162.414,126.587,-66.346,0,0,0,
,0.109,-0.001,1.019,194.885,145.324,-50.965,0,0,0,
,0.173,-0.066,1.046,166.931,126.403,-72.388,0,0,0,
,0.149,-0.032,0.995,102.783,101.135,-58.106,0,0,0,
,0.13,-0.032,0.984,109.314,113.098,-41.81,0,0,0,
,0.178,-0.05,0.982,121.276,112.793,-45.105,0,0,0,
,0.178,-0.038,0.968,112.609,113.708,-26.734,0,0,0,
,0.156,-0.033,0.979,119.69,118.774,-23.316,0,0,0,
,0.16,-0.031,0.978,116.088,126.77,-25.269,0,0,0,
,0.176,-0.03,0.991,109.375,130.371,-25.147,0,0,0,
,0.187,-0.025,1.001,112.854,128.296,-21.241,0,0,0,
,0.193,-0.046,1.001,133.789,119.629,-18.86,0,0,0,
,0.201,-0.08,0.961,137.878,121.215,-17.09,0,0,0,
,0.226,-0.076,0.881,118.957,138.244,-13.855,0,0,0,
,0.227,-0.074,0.946,128.112,115.844,-19.837,0,0,0,
,0.231,-0.108,0.968,130.92,105.468,-7.325,0,0,0,
,0.223,-0.123,0.963,111.145,90.881,-5.555,0,0,0,
,0.226,-0.109,0.958,78.735,76.843,-9.522,0,0,0,
,0.24,-0.102,0.935,58.105,63.354,-11.353,0,0,0,
,0.243,-0.098,0.895,34.79,59.57,-2.198,0,0,0,
,0.262,-0.089,0.902,40.649,56.823,-0.55,0,0,0,
,0.291,-0.108,0.91,51.391,57.251,7.141,0,0,0,
,0.303,-0.102,0.9,60.241,52.917,19.043,0,0,0,
,0.323,-0.115,0.892,51.574,49.194,29.724,0,0,0,
,0.365,-0.116,0.891,44.372,36.377,35.949,0,0,0,
,0.379,-0.109,0.901,55.114,20.813,57.128,0,0,0,
,0.416,-0.101,0.893,63.598,14.77,62.255,0,0,0,
,0.439,-0.112,0.892,27.587,-4.395,80.322,0,0,0,
,0.459,-0.129,0.943,-74.646,-18.433,99.548,0,0,0,
,0.511,-0.109,0.97,-205.323,-45.96,122.802,0,0,0,
,0.558,-0.015,0.981,-205.689,-97.107,126.159,0,0,0,
,0.599,-0.01,0.975,-133.851,-99.122,132.629,0,0,0,
,0.678,-0.005,0.942,-75.867,-121.399,143.249,0,0,0,
,0.657,-0.03,0.9,34.729,-152.955,195.129,0,0,0,
,0.559,-0.141,0.879,112.182,-138.672,213.501,0,0,0,
,0.455,-0.243,0.828,56.274,-98.328,244.323,0,0,0,
,0.396,-0.145,0.816,13.183,-66.956,231.262,0,0,0,
,0.296,-0.155,0.856,19.531,40.771,168.213,0,0,0,
,0.153,-0.235,0.871,-63.416,158.752,146.728,0,0,0,
,0.145,-0.236,0.858,-388.367,306.579,147.277,0,0,0,
,0.184,-0.112,0.899,-577.759,400.634,69.336,0,0,0,
,0.045,-0.191,0.825,-863.77,592.712,59.509,0,0,0,
,0.084,0.079,0.906,-937.623,716.003,39.611,0,0,0,
,0.192,0.262,1.112,-658.753,873.962,-19.043,0,0,0,
,0.324,0.329,1.445,-249.512,1059.082,-8.606,0,0,0,
,0.923,0.534,2.077,393.493,1136.169,140.258,0,0,0,
,1.175,0.487,2.376,754.028,1101.135,250.732,0,0,0,
,1.374,0.387,2.343,945.068,962.585,456.115,0,0,0,
,1.653,0.454,2.473,973.938,485.351,471.679,0,0,0,
,1.864,0.448,2.794,993.896,-268.921,517.089,0,0,0,
,1.83,0.398,3.029,1001.77,-1231.812,390.93,0,0,0,
,1.63,-0.113,2.79,854.736,-1999.573,-67.872,0,0,0,
,1.491,-0.436,2.168,563.049,-2000,-407.837,0,0,0,
,1.532,-0.065,1.302,491.15,-2000,-599.06,0,0,0,
,1.659,0.22,0.249,460.693,-2000,-774.476,0,0,0,
,1.745,0.398,-0.75,178.894,-2000,-571.534,0,0,0,
,1.688,0.467,-1.658,-565.918,-2000,-75.013,0,0,0,
,1.49,0.356,-1.822,-1534.913,-2000,721.191,0,0,0,
,1.615,-0.6,-2.086,-1491.761,-2000,1999.694,0,0,0,
,3.116,-1.876,-4,365.844,-2000,1999.694,0,0,0,
,0.645,-3.467,-4,572.57,-2000,1554.565,0,0,0,
,0.437,0.788,-4,1999.694,-24.476,-561.219,0,0,0,
,1.067,-2.477,-4,1999.694,1999.694,-2000,0,0,0,
,2.228,-2.565,-2.378,580.932,1999.694,-2000,0,0,0,
,2.346,0.06,-3.79,-1962.098,1999.694,-2000,0,0,0,
,2.673,-0.626,-3.976,-1215.21,1999.694,-2000,0,0,0,
,3.999,1.682,-3.445,340.942,1999.694,-2000,0,0,0,
,3.999,0.228,-3.704,1999.694,1999.694,-2000,0,0,0,
,3.999,-0.387,-2.369,1999.694,1999.694,-1130.127,0,0,0,
,3.999,-0.097,-0.389,1999.694,1999.694,315.857,0,0,0,
,3.999,-1.896,2.807,1102.6,1998.23,598.571,0,0,0,
,3.999,-1.4,3.033,-478.882,616.577,130.615,0,0,0,
,3.999,-2.113,2.491,-955.018,-1023.072,-84.9,0,0,0,
,3.037,-1.714,1.998,-1828.003,-1981.08,26.977,0,0,0,
,2.083,-0.752,1.133,-2000,-2000,297.973,0,0,0,
,1.235,-0.349,0.49,-1973.694,-2000,675.659,0,0,0,
,0.635,0.055,0.233,-1690.43,-2000,955.078,0,0,0,
,0.258,0.42,0.256,-1194.581,-2000,1073.364,0,0,0,
,0.136,0.718,0.388,-566.651,-1999.817,1109.558,0,0,0,
,0.216,0.923,0.573,309.753,-1916.443,951.965,0,0,0,
,0.312,0.694,0.781,1266.54,-1892.09,477.844,0,0,0,
,0.353,0.126,0.992,1775.94,-1907.044,113.159,0,0,0,
,0.213,-0.552,1.142,618.896,-1064.27,56.64,0,0,0,
,0.443,-0.446,0.948,238.769,-868.836,151.184,0,0,0,
,0.509,-0.363,0.741,-107.544,-785.462,272.949,0,0,0,
,0.466,-0.183,0.608,-296.387,-737.061,381.164,0,0,0,
,0.442,0.14,0.585,-383.545,-677.308,438.171,0,0,0,
,0.476,0.481,0.644,-273.926,-628.724,401.062,0,0,0,
,0.514,0.583,0.747,41.015,-621.155,225.158,0,0,0,
,0.524,0.427,0.781,445.739,-654.602,61.828,0,0,0,
,0.496,0.197,0.811,664.489,-714.173,-16.785,0,0,0,
,0.418,0.038,0.825,613.22,-707.642,-15.625,0,0,0,
,0.343,-0.003,0.764,432.495,-671.204,15.014,0,0,0,
,0.297,0.006,0.684,238.281,-637.94,13,0,0,0,
,0.246,-0.002,0.601,36.071,-585.083,1.77,0,0,0,
,0.224,0.016,0.572,-120.179,-509.156,-9.705,0,0,0,
,0.227,0.059,0.59,-186.707,-430.909,-38.331,0,0,0,
,0.25,0.072,0.639,-147.522,-349.244,-93.689,0,0,0,
,0.261,0.05,0.663,-72.937,-279.297,-165.589,0,0,0,
,0.261,0.125,0.763,8.972,-211.365,-186.158,0,0,0,
,0.271,0.164,0.84,151.672,-78.492,-268.433,0,0,0,
,0.254,0.028,0.779,288.818,14.831,-385.132,0,0,0,
,0.223,-0.103,0.668,348.022,108.703,-414.551,0,0,0,
,0.208,-0.165,0.566,304.504,191.04,-429.932,0,0,0,
,0.202,-0.401,0.474,201.66,299.438,-441.956,0,0,0,
,0.288,-0.518,0.499,-8.179,359.924,-328.736,0,0,0,
,0.486,-0.253,0.684,-632.996,357.422,-89.905,0,0,0,
,0.577,-0.034,0.792,-672.303,346.496,-31.25,0,0,0,
,0.639,0.079,0.914,-417.725,279.541,-32.532,0,0,0,
,0.768,0.21,0.813,-14.222,174.316,-157.166,0,0,0,
,0.743,0.076,0.905,395.507,-65.186,-209.778,0,0,0,
,0.608,-0.122,0.899,363.159,-67.444,-118.348,0,0,0,
,0.588,-0.119,0.857,86.364,-17.762,-103.028,0,0,0,
,0.651,0.075,0.929,-96.07,-43.274,2.624,0,0,0,
,0.634,0.135,1.124,-171.143,-110.047,62.866,0,0,0,
,0.458,0.092,1.127,-149.17,-86.609,119.69,0,0,0,
,0.394,0.221,1.1,10.864,-50.293,190.857,0,0,0,
,0.379,0.364,1.083,411.621,-51.026,171.814,0,0,0,
,0.291,0.08,1.12,735.29,-76.172,82.458,0,0,0,
,0.186,-0.433,1.197,586.975,-124.512,10.192,0,0,0,
,0.108,-0.57,1.08,96.862,-143.433,91.613,0,0,0,
,0.166,-0.319,1.008,-120.606,-144.959,111.023,0,0,0,
,0.158,-0.277,0.964,-89.295,-117.188,55.297,0,0,0,
,0.115,-0.308,0.909,-95.154,-99.305,43.64,0,0,0,
,0.087,-0.235,0.881,-163.453,-90.149,25.329,0,0,0,
,0.08,-0.169,0.89,-207.398,-67.566,-3.785,0,0,0,
,0.091,-0.123,0.909,-265.748,-50.049,-25.94,0,0,0,
,0.121,-0.07,0.942,-336.06,-45.105,-36.927,0,0,0,
,0.177,0.047,1.062,-364.93,-65.003,-40.772,0,0,0,
,0.21,0.084,1.096,-350.586,-79.163,-57.19,0,0,0,
,0.219,0.094,1.071,-317.078,-122.254,-59.815,0,0,0,
,0.176,0.115,1.025,-239.38,-153.87,-51.941,0,0,0,
,0.123,0.063,0.979,-165.039,-145.997,-62.623,0,0,0,
,0.121,-0.018,0.967,-150.147,-120.789,-78.064,0,0,0,
,0.14,-0.058,0.93,-164.429,-114.869,-84.107,0,0,0,
,0.144,-0.062,0.944,-176.88,-113.099,-91.736,0,0,0,
,0.148,-0.072,0.981,-189.698,-110.413,-114.747,0,0,0,
,0.146,-0.085,1.055,-233.216,-125.611,-129.7,0,0,0,
,0.158,-0.023,1.066,-295.716,-118.958,-115.479,0,0,0,
,0.133,0.041,1.043,-338.196,-148.011,-120.85,0,0,0,
,0.098,0.082,1.031,-324.219,-159.302,-102.723,0,0,0,
,0.065,0.062,1.002,-257.691,-140.503,-106.202,0,0,0,
,0.052,0.037,0.993,-222.718,-112.122,-95.765,0,0,0,
,0.08,0.074,1.054,-218.079,-104.493,-70.313,0,0,0,
,0.088,0.095,1.107,-214.966,-103.15,-60.975,0,0,0,
,0.071,0.092,1.087,-218.873,-100.159,-49.744,0,0,0,
,0.049,0.123,1.057,-222.596,-99.976,-37.049,0,0,0,
,0.048,0.16,1.078,-201.6,-77.576,-29.053,0,0,0,
,0.061,0.124,1.094,-180.848,-74.219,-45.044,0,0,0,
,0.089,0.139,1.179,-201.966,-85.389,-20.874,0,0,0,
,0.101,0.11,1.175,-275.452,-101.563,-25.635,0,0,0,
,0.069,0.136,1.112,-337.708,-144.227,-0.367,0,0,0,
,0.005,0.221,1.072,-366.211,-168.091,38.452,0,0,0,
,-0.015,0.33,1.022,-310.73,-148.194,44.738,0,0,0,
,0.001,0.404,1.002,-330.384,-155.701,79.65,0,0,0,
,0.005,0.491,1.056,-320.191,-193.482,123.169,0,0,0,
,-0.05,0.431,1.07,-244.935,-215.516,122.558,0,0,0,
,-0.075,0.379,1.088,-216.553,-237.244,157.287,0,0,0,
,-0.063,0.315,1.003,-199.646,-239.563,175.415,0,0,0,
,-0.075,0.314,0.952,-145.813,-244.019,225.097,0,0,0,
,-0.043,0.371,0.89,-175.354,-224.122,283.996,0,0,0,
,-0.024,0.333,0.817,-168.213,-217.774,278.198,0,0,0,
,-0.052,0.251,0.809,-175.049,-208.13,289.795,0,0,0,
,-0.092,0.219,0.811,-243.348,-167.359,328.43,0,0,0,
,-0.113,0.245,0.845,-347.29,-125.489,364.868,0,0,0,
,-0.102,0.251,0.916,-357.666,-92.102,358.52,0,0,0,
,-0.072,0.279,0.954,-280.335,-75.135,370.91,0,0,0,
,-0.086,0.332,0.943,-122.437,-60.486,418.151,0,0,0,
,-0.123,0.376,0.896,19.653,-35.462,382.263,0,0,0,
,-0.123,0.303,0.894,99.426,-14.954,319.58,0,0,0,
,-0.078,0.181,0.92,70.007,-8.851,244.873,0,0,0,
,-0.065,0.173,0.951,83.19,-21.119,209.777,0,0,0,
,-0.073,0.137,0.994,130.981,-22.4,180.969,0,0,0,
,-0.061,0.136,0.995,152.282,12.817,142.883,0,0,0,
,-0.006,0.136,0.998,202.575,-15.32,91.98,0,0,0,
,-0.036,0.077,0.968,212.951,-64.698,34.24,0,0,0,
,-0.089,0.019,0.914,159.729,-91.614,-2.808,0,0,0,
,-0.139,0.024,0.927,56.884,-92.225,-48.462,0,0,0,
,-0.136,0.097,0.948,67.016,-58.228,-93.628,0,0,0,
,-0.094,0.203,0.952,156.982,-36.438,-113.953,0,0,0,
,-0.104,0.2,0.962,262.207,-49.622,-165.039,0,0,0,
,-0.109,0.161,0.975,305.542,-44.617,-190.369,0,0,0,
,-0.068,0.108,0.951,285.278,-36.133,-179.505,0,0,0,
,-0.084,0.163,0.879,437.317,-14.466,-243.348,0,0,0,
,-0.029,0.084,0.865,479.492,4.394,-233.277,0,0,0,
,-0.034,-0.007,0.958,291.992,-40.406,-279.175,0,0,0,
,-0.044,-0.055,0.962,1.831,-32.654,-268.372,0,0,0,
,-0.056,0.008,1.003,-260.987,-53.528,-250.428,0,0,0,
,-0.075,0.15,1.034,-296.265,-121.582,-270.508,0,0,0,
,-0.126,0.038,1.05,-288.88,-151.551,-389.893,0,0,0,
,-0.068,-0.1,1.03,-435.242,-168.213,-460.206,0,0,0,
,-0.008,-0.022,1.03,-673.34,-273.865,-457.337,0,0,0,
,-0.031,0.153,1.004,-864.38,-387.696,-476.685,0,0,0,
,-0.087,0.22,0.984,-1046.753,-445.069,-480.408,0,0,0,
,-0.118,0.346,0.887,-1168.702,-480.103,-449.28,0,0,0,
,-0.151,0.576,0.817,-1098.328,-498.475,-402.894,0,0,0,
,-0.197,0.701,0.822,-740.662,-458.435,-361.512,0,0,0,
,-0.096,0.476,1.022,-421.631,-386.292,-278.992,0,0,0,
,-0.166,0.475,0.94,-333.008,-382.264,-116.333,0,0,0,
,-0.302,0.402,0.952,-308.838,-254.395,-11.109,0,0,0,
,-0.351,0.379,0.959,-640.32,-176.392,95.52,0,0,0,
,-0.415,0.622,0.862,-1162.537,-129.212,250.793,0,0,0,
,-0.467,0.878,0.801,-1415.04,-83.68,365.112,0,0,0,
,-0.48,0.841,0.804,-1545.96,-51.453,352.111,0,0,0,
,-0.492,1.029,0.888,-1429.505,-91.614,507.141,0,0,0,
,-0.494,1.169,0.958,-1000.672,-115.479,543.518,0,0,0,
,-0.528,1.043,0.944,-424.866,-117.981,563.354,0,0,0,
,-0.559,0.843,0.867,-30.64,-121.216,581.543,0,0,0,
,-0.577,0.685,0.796,161.682,-109.375,620.727,0,0,0,
,-0.571,0.597,0.76,229.492,-73.365,634.399,0,0,0,
,-0.548,0.536,0.796,305.786,-48.951,635.803,0,0,0,
,-0.555,0.511,0.768,372.741,-3.479,627.441,0,0,0,
,-0.534,0.432,0.776,447.57,46.02,602.295,0,0,0,
,-0.511,0.416,0.766,429.077,64.392,630.31,0,0,0,
,-0.526,0.49,0.77,370.239,58.532,653.808,0,0,0,
,-0.577,0.514,0.689,333.007,82.214,660.339,0,0,0,
,-0.611,0.399,0.573,321.472,136.291,629.882,0,0,0,
,-0.579,0.318,0.46,248.718,206.665,630.737,0,0,0,
,-0.538,0.271,0.38,30.456,210.266,619.018,0,0,0,
,-0.524,0.289,0.535,-165.223,173.889,577.209,0,0,0,
,-0.55,0.26,0.629,-239.93,179.87,577.575,0,0,0,
,-0.549,0.286,0.649,-281.006,213.562,574.401,0,0,0,
,-0.559,0.276,0.572,-261.536,247.497,537.231,0,0,0,
,-0.53,0.338,0.446,-259.4,294.311,461.181,0,0,0,
,-0.499,0.358,0.429,-124.878,329.284,366.638,0,0,0,
,-0.528,0.248,0.403,51.94,360.839,299.987,0,0,0,
,-0.521,0.203,0.63,108.642,358.825,265.319,0,0,0,
,-0.482,0.271,0.774,15.38,335.205,223.205,0,0,0,
,-0.469,0.216,0.764,-43.763,320.129,165.222,0,0,0,
,-0.499,0.158,0.677,-203.98,288.757,144.958,0,0,0,
,-0.504,0.291,0.663,-386.17,275.451,132.873,0,0,0,
,-0.47,0.429,0.751,-344.849,267.273,103.088,0,0,0,
,-0.438,0.463,0.76,-203.736,263.916,81.481,0,0,0,
,-0.441,0.433,0.747,-60.181,240.478,78.857,0,0,0,
,-0.471,0.399,0.756,13.122,222.229,78.369,0,0,0,
,-0.476,0.39,0.78,48.767,216.247,70.312,0,0,0,
,-0.454,0.382,0.761,62.316,242.553,69.213,0,0,0,
,-0.42,0.403,0.791,40.222,254.028,66.345,0,0,0,
,-0.432,0.471,0.796,87.219,261.596,75.683,0,0,0,
,-0.419,0.394,0.828,238.098,284.729,33.142,0,0,0,
,-0.374,0.379,0.827,323.669,291.381,44.128,0,0,0,
,-0.369,0.357,0.858,331.237,272.888,60.73,0,0,0,
,-0.433,0.324,0.854,399.658,275.634,76.721,0,0,0,
,-0.441,0.265,0.916,314.209,285.766,90.698,0,0,0,
,-0.384,0.369,0.978,279.907,254.272,102.478,0,0,0,
,-0.376,0.378,1.067,363.83,230.713,116.638,0,0,0,
,-0.425,0.199,1.023,441.955,224.06,97.9,0,0,0,
,-0.441,0.126,1.01,300.415,208.007,132.324,0,0,0,
,-0.428,0.143,1.026,-1.038,160.217,172.912,0,0,0,
,-0.455,0.252,1.031,-106.141,126.464,191.589,0,0,0,
,-0.471,0.021,0.848,-89.722,175.232,125.854,0,0,0,
,-0.445,0.001,0.822,-121.949,210.388,175.72,0,0,0,
,-0.417,0.119,0.847,-56.275,242.065,211.242,0,0,0,
,-0.409,0.281,0.905,121.276,266.845,195.373,0,0,0,
,-0.362,0.266,1.013,324.768,291.381,111.206,0,0,0,
,-0.261,0.09,1.099,455.688,294.25,26.672,0,0,0,
,-0.143,0.177,1.175,605.59,192.443,35.461,0,0,0,
,-0.091,0.153,1.201,878.784,114.441,-70.862,0,0,0,
,-0.114,-0.04,1.101,1030.822,87.524,-120.24,0,0,0,
,-0.117,-0.278,1.049,809.448,65.673,-187.867,0,0,0,
,-0.058,-0.278,1.061,449.157,48.95,-195.008,0,0,0,
,-0.027,-0.157,1.085,208.74,12.023,-208.68,0,0,0,
,-0.065,-0.069,1.111,124.267,-13.123,-238.282,0,0,0,
,-0.062,0.009,1.143,99.548,-23.621,-245.728,0,0,0,
,-0.052,0.11,1.094,102.722,-38.025,-247.803,0,0,0,
,-0.054,0.2,1.09,106.079,-88.685,-250.489,0,0,0,
,-0.093,0.197,1.1,137.878,-137.757,-259.339,0,0,0,
,-0.143,0.191,1.065,100.463,-166.626,-227.601,0,0,0,
,-0.171,0.255,1.022,-0.916,-204.285,-177.308,0,0,0,
,-0.228,0.274,0.974,-90.577,-247.132,-150.574,0,0,0,
,-0.297,0.255,0.884,-253.113,-272.583,-104.615,0,0,0,
,-0.412,0.234,0.787,-431.275,-291.199,-33.57,0,0,0,
,-0.519,0.25,0.709,-593.14,-290.711,49.56,0,0,0,
,-0.61,0.281,0.648,-660.462,-255.066,125.549,0,0,0,
,-0.661,0.319,0.588,-661.56,-210.755,201.782,0,0,0,
,-0.693,0.322,0.561,-574.219,-153.809,252.197,0,0,0,
,-0.71,0.256,0.565,-445.801,-80.75,283.691,0,0,0,
,-0.71,0.168,0.619,-320.984,-40.284,300.232,0,0,0,
,-0.688,0.11,0.675,-194.764,8.972,334.106,0,0,0,
,-0.649,0.078,0.741,-109.314,33.081,349.731,0,0,0,
,-0.608,0.091,0.782,44.982,44.311,345.947,0,0,0,
,-0.581,0.033,0.821,238.22,62.561,292.053,0,0,0,
,-0.552,-0.07,0.895,440.246,70.861,282.165,0,0,0,
,-0.5,-0.191,0.998,608.398,77.636,200.439,0,0,0,
,-0.444,-0.359,1.043,644.531,107.605,116.272,0,0,0,
,-0.372,-0.476,1.033,523.498,126.648,25.146,0,0,0,
,-0.311,-0.49,1.078,365.722,114.318,-72.937,0,0,0,
,-0.248,-0.412,1.107,200.256,110.473,-149.659,0,0,0,
,-0.206,-0.308,1.136,140.564,103.698,-239.808,0,0,0,
,-0.182,-0.244,1.096,118.103,104.431,-317.688,0,0,0,
,-0.15,-0.183,1.136,138.427,105.957,-380.738,0,0,0,
,-0.103,-0.063,1.147,133.789,97.839,-405.64,0,0,0,
,-0.083,-0.004,1.138,186.767,74.585,-440.369,0,0,0,
,-0.087,0.034,1.136,197.082,58.898,-444.642,0,0,0,
,-0.086,0.085,1.132,171.63,31.555,-431.885,0,0,0,
,-0.099,0.145,1.125,160.888,-11.78,-416.382,0,0,0,
,-0.281,0.189,1.043,-95.276,-105.652,-309.021,0,0,0,
,-0.348,0.224,1.004,-224.488,-136.414,-256.226,0,0,0,
,-0.426,0.279,0.957,-322.022,-170.472,-189.026,0,0,0,
,-0.537,0.296,0.901,-375.794,-180.787,-131.287,0,0,0,
,-0.618,0.341,0.834,-403.504,-165.65,-34.668,0,0,0,
,-0.648,0.351,0.777,-398.987,-137.207,38.024,0,0,0,
,-0.691,0.325,0.734,-365.174,-111.145,135.681,0,0,0,
,-0.744,0.253,0.688,-339.173,-74.585,222.168,0,0,0,
,-0.761,0.244,0.672,-314.698,-41.504,294.433,0,0,0,
,-0.753,0.187,0.642,-276.368,5.31,348.388,0,0,0,
,-0.744,0.143,0.628,-240.235,35.461,400.879,0,0,0,
,-0.731,0.105,0.649,-192.444,53.833,426.513,0,0,0,
,-0.721,0.025,0.667,-123.23,75.195,435.608,0,0,0,
,-0.698,-0.069,0.693,-109.925,100.586,432.739,0,0,0,
,-0.657,-0.12,0.712,-122.498,118.408,418.335,0,0,0,
,-0.627,-0.133,0.76,-94.849,125,396.24,0,0,0,
,-0.602,-0.164,0.818,-39.49,137.634,335.022,0,0,0,
,-0.551,-0.205,0.882,48.217,161.56,263.305,0,0,0,
,-0.472,-0.216,0.921,99.182,170.776,173.767,0,0,0,
,-0.402,-0.24,0.993,179.26,169.067,69.397,0,0,0,
,-0.33,-0.261,1.045,263.061,180.603,-25.574,0,0,0,
,-0.258,-0.299,1.083,300.048,186.096,-145.325,0,0,0,
,-0.169,-0.274,1.132,302.917,170.593,-243.592,0,0,0,
,-0.095,-0.247,1.143,338.806,162.17,-344.91,0,0,0,
,-0.05,-0.22,1.188,342.224,146.972,-434.815,0,0,0,
,0.012,-0.178,1.224,311.767,137.817,-493.164,0,0,0,
,0.123,-0.055,1.235,282.47,118.835,-527.71,0,0,0,
,0.143,0.044,1.242,286.01,74.096,-533.997,0,0,0,
,0.134,0.142,1.242,272.583,9.216,-522.461,0,0,0,
,0.105,0.178,1.217,257.019,-34.729,-508.362,0,0,0,
,0.041,0.189,1.157,195.556,-65.735,-461.976,0,0,0,
,-0.03,0.168,1.115,81.97,-94.056,-423.096,0,0,0,
,-0.106,0.186,1.09,-121.399,-127.015,-368.47,0,0,0,
,-0.216,0.232,1.041,-325.623,-173.401,-306.214,0,0,0,
,-0.348,0.29,0.971,-506.226,-213.257,-227.539,0,0,0,
,-0.513,0.433,0.89,-630.005,-234.803,-122.742,0,0,0,
,-0.665,0.56,0.795,-651.49,-238.77,-39.002,0,0,0,
,-0.92,0.434,0.539,-281.678,-76.477,304.138,0,0,0,
,-0.91,0.288,0.523,-229.31,-28.138,412.902,0,0,0,
,-0.896,0.186,0.511,-197.266,11.23,507.446,0,0,0,
,-0.881,0.075,0.499,-135.437,68.481,573.73,0,0,0,
,-0.834,0.048,0.54,-51.331,90.393,602.844,0,0,0,
,-0.796,-0.137,0.614,92.834,133.239,567.688,0,0,0,
,-0.747,-0.306,0.684,145.568,152.771,548.645,0,0,0,
,-0.702,-0.402,0.759,144.897,157.104,487.732,0,0,0,
,-0.649,-0.43,0.851,161.193,150.879,398.864,0,0,0,
,-0.584,-0.463,0.95,209.777,170.044,276.428,0,0,0,
,-0.46,-0.479,1.018,215.21,180.175,130.188,0,0,0,
,-0.335,-0.455,1.08,194.946,166.809,-7.325,0,0,0,
,-0.254,-0.406,1.122,176.513,139.77,-132.203,0,0,0,
,-0.178,-0.359,1.175,198.791,149.841,-264.771,0,0,0,
,-0.078,-0.292,1.201,226.684,171.753,-389.588,0,0,0,
,0.047,-0.216,1.23,212.646,176.147,-486.695,0,0,0,
,0.136,-0.155,1.206,219.421,159.362,-548.096,0,0,0,
,0.181,-0.055,1.225,241.088,123.291,-565.979,0,0,0,
,0.187,0.019,1.238,288.086,79.162,-592.102,0,0,0,
,0.196,0.095,1.25,334.9,65.856,-602.295,0,0,0,
,0.196,0.121,1.216,361.633,36.315,-586.365,0,0,0,
,0.14,0.134,1.174,318.054,-20.691,-561.219,0,0,0,
,0.048,0.171,1.166,177.307,-86.548,-524.659,0,0,0,
,-0.032,0.127,1.211,-113.221,-141.846,-484.559,0,0,0,
,-0.133,0.325,1.104,-434.021,-242.371,-361.573,0,0,0,
,-0.311,0.645,0.987,-409.424,-311.89,-254.761,0,0,0,
,-0.531,0.613,0.85,-256.775,-306.336,-198.182,0,0,0,
,-0.743,0.503,0.754,-182.19,-261.719,-91.004,0,0,0,
,-0.845,0.413,0.645,-222.474,-201.172,31.25,0,0,0,
,-0.875,0.372,0.517,-283.814,-137.757,154.48,0,0,0,
,-0.908,0.368,0.471,-246.888,-81.91,281.189,0,0,0,
,-0.922,0.313,0.461,-118.103,-19.104,374.755,0,0,0,
,-0.909,0.141,0.515,-8.057,41.198,434.448,0,0,0,
,-0.875,-0.02,0.578,18.31,71.838,484.924,0,0,0,
,-0.841,-0.148,0.628,-47.425,69.946,515.014,0,0,0,
,-0.823,-0.207,0.683,-128.907,52.978,529.052,0,0,0,
,-0.799,-0.226,0.747,-157.471,42.358,518.554,0,0,0,
,-0.779,-0.279,0.789,-138.672,41.626,484.497,0,0,0,
,-0.734,-0.317,0.841,-132.447,48.645,433.349,0,0,0,
,-0.651,-0.334,0.897,-133.912,46.386,360.962,0,0,0,
,-0.58,-0.312,0.948,-92.957,40.954,272.277,0,0,0,
,-0.509,-0.309,0.995,-30.091,45.776,199.279,0,0,0,
,-0.408,-0.293,1.041,56.64,52.612,99.548,0,0,0,
,-0.363,-0.351,1.061,155.517,79.284,-12.818,0,0,0,
,-0.267,-0.379,1.065,206.237,117.065,-125.123,0,0,0,
,-0.176,-0.375,1.079,230.346,143.798,-241.944,0,0,0,
,-0.077,-0.324,1.06,257.568,176.574,-354.981,0,0,0,
,-0.004,-0.234,1.079,309.814,189.636,-436.829,0,0,0,
,0.044,-0.176,1.108,391.357,204.895,-501.221,0,0,0,
,0.077,-0.137,1.165,408.691,217.407,-529.908,0,0,0,
,0.132,-0.032,1.207,377.99,204.284,-534.913,0,0,0,
,0.168,0.075,1.259,353.759,161.377,-524.72,0,0,0,
,0.158,0.179,1.191,303.527,102.478,-482.85,0,0,0,
,0.181,0.175,1.567,-43.03,-36.988,-415.284,0,0,0,
,-0.001,0.289,1.126,-321.9,-159.913,-307.129,0,0,0,
,-0.268,0.569,1.012,-176.392,-220.093,-194.825,0,0,0,
,-0.355,0.537,0.968,-6.836,-132.447,-192.994,0,0,0,
,-0.396,0.332,0.919,64.819,-95.398,-117.371,0,0,0,
,-0.555,0.212,0.828,-169.495,-153.931,-5.86,0,0,0,
,-0.701,0.288,0.728,-391.724,-165.711,126.953,0,0,0,
,-0.825,0.407,0.681,-349.427,-124.878,256.775,0,0,0,
,-0.901,0.324,0.63,-209.839,-68.055,341.125,0,0,0,
,-0.911,0.112,0.625,-145.142,-26.551,400.817,0,0,0,
,-0.901,-0.042,0.585,-162.537,-28.748,471.618,0,0,0,
,-0.902,-0.129,0.61,-192.444,-42.725,513.733,0,0,0,
,-0.885,-0.265,0.626,-203.858,-26.368,532.898,0,0,0,
,-0.846,-0.319,0.58,-253.785,-25.94,534.484,0,0,0,
,-0.841,-0.368,0.623,-51.697,-79.712,471.557,0,0,0,
,-0.923,-0.635,0.628,172.119,20.568,359.558,0,0,0,
,-0.759,-0.745,0.716,162.292,85.693,212.646,0,0,0,
,-0.58,-0.704,0.769,-18.006,126.464,95.336,0,0,0,
,-0.444,-0.508,0.819,-260.254,89.172,59.326,0,0,0,
,-0.478,-0.22,1.004,-113.282,6.591,-20.569,0,0,0,
,-0.569,-0.443,1.082,102.417,129.15,-223.206,0,0,0,
,-0.302,-0.415,1.117,42.785,181.518,-306.946,0,0,0,
,-0.117,-0.221,1.18,77.209,143.859,-370.423,0,0,0,
,-0.089,-0.199,1.176,168.64,121.032,-467.835,0,0,0,
,-0.05,-0.155,1.252,209.167,115.661,-510.071,0,0,0,
,0.032,-0.104,1.26,203.796,104.675,-548.584,0,0,0,
,0.107,0.035,1.3,186.157,53.955,-543.335,0,0,0,
,0.156,0.118,1.277,175.476,5.432,-540.894,0,0,0,
,0.128,0.174,1.208,182.739,-55.542,-508.362,0,0,0,
,0.081,0.165,1.138,162.658,-96.68,-479.126,0,0,0,
,0.029,0.213,1.145,120.788,-138.733,-423.34,0,0,0,
,-0.044,0.192,1.101,10.437,-172.242,-392.212,0,0,0,
,-0.149,0.259,0.995,-90.882,-211.914,-320.74,0,0,0,
,-0.274,0.372,0.995,-102.295,-225.281,-261.597,0,0,0,
,-0.355,0.407,0.96,-117.859,-242.798,-200.684,0,0,0,
,-0.48,0.371,0.875,-140.748,-276.123,-142.518,0,0,0,
,-0.647,0.273,0.771,-236.512,-309.754,-82.032,0,0,0,
,-0.833,0.248,0.664,-401.551,-317.994,15.38,0,0,0,
,-0.97,0.289,0.517,-462.464,-304.566,115.478,0,0,0,
,-1.066,0.293,0.462,-373.291,-231.141,218.261,0,0,0,
,-1.054,0.209,0.46,-217.469,-134.278,315.368,0,0,0,
,-0.992,0.046,0.466,-106.873,-54.017,379.76,0,0,0,
,-0.925,-0.095,0.54,-86.487,-16.48,438.415,0,0,0,
,-0.891,-0.204,0.558,-126.587,11.779,462.646,0,0,0,
,-0.869,-0.256,0.616,-180.787,28.625,475.952,0,0,0,
,-0.847,-0.298,0.666,-200.135,62.744,445.678,0,0,0,
,-0.81,-0.316,0.708,-216.309,96.191,397.705,0,0,0,
,-0.749,-0.322,0.775,-223.267,122.009,336.914,0,0,0,
,-0.702,-0.302,0.829,-197.876,135.192,274.292,0,0,0,
,-0.654,-0.278,0.884,-121.094,155.578,189.575,0,0,0,
,-0.574,-0.264,0.912,8.789,179.931,102.844,0,0,0,
,-0.497,-0.329,0.931,115.722,210.388,-21.424,0,0,0,
,-0.413,-0.374,0.987,140.686,234.924,-120.301,0,0,0,
,-0.292,-0.337,1.014,87.646,247.375,-218.201,0,0,0,
,-0.205,-0.247,1.039,87.463,242.859,-309.998,0,0,0,
,-0.137,-0.16,1.079,158.142,234.924,-388.611,0,0,0,
,-0.067,-0.132,1.139,253.662,239.441,-470.154,0,0,0,
,0.016,-0.108,1.157,299.194,229.492,-504.517,0,0,0,
,0.086,-0.053,1.209,287.048,181.152,-534.119,0,0,0,
,0.113,0.044,1.226,241.76,127.38,-524.537,0,0,0,
,0.103,0.12,1.239,210.205,49.56,-514.893,0,0,0,
,0.068,0.172,1.202,163.391,-6.775,-486.878,0,0,0,
,0.003,0.205,1.176,100.158,-58.96,-443.299,0,0,0,
,-0.338,0.428,1.027,-445.679,-229.554,-259.339,0,0,0,
,-0.53,0.553,0.893,-497.132,-288.025,-164.307,0,0,0,
,-0.785,0.629,0.755,-444.519,-313.233,-50.904,0,0,0,
,-0.98,0.624,0.663,-347.596,-265.625,72.448,0,0,0,
,-1.052,0.517,0.563,-238.221,-189.942,189.941,0,0,0,
,-1.054,0.39,0.412,-208.924,-140.381,330.627,0,0,0,
,-1.09,0.308,0.302,-197.571,-134.095,477.844,0,0,0,
,-1.125,0.197,0.361,-132.569,-77.759,557.373,0,0,0,
,-0.843,-0.323,0.601,-280.64,119.323,632.934,0,0,0,
,-0.784,-0.353,0.72,-158.753,169.372,538.513,0,0,0,
,-0.684,-0.415,0.856,21.606,225.83,424.194,0,0,0,
,-0.549,-0.469,0.949,198.974,263.366,284.607,0,0,0,
,-0.426,-0.518,1.061,333.679,283.203,121.582,0,0,0,
,-0.315,-0.554,1.128,388.244,290.344,-50.232,0,0,0,
,-0.191,-0.54,1.167,356.201,268.188,-232.422,0,0,0,
,-0.086,-0.432,1.266,372.497,235.168,-373.108,0,0,0,
,0.005,-0.343,1.265,445.19,248.962,-517.212,0,0,0,
,0.097,-0.354,1.255,412.475,249.878,-648.621,0,0,0,
,0.227,-0.234,1.322,268.371,208.435,-678.04,0,0,0,
,0.291,0.005,1.351,175.781,117.492,-655.701,0,0,0,
,0.271,0.191,1.379,140.93,26.977,-648.621,0,0,0,
,0.208,0.22,1.26,106.994,-39.795,-631.104,0,0,0,
,0.106,0.209,1.09,29.48,-90.21,-563.416,0,0,0,
,-0.014,0.253,1.041,-58.533,-127.991,-513.733,0,0,0,
,-0.112,0.383,1.037,-152.161,-160.035,-432.129,0,0,0,
,-0.302,0.38,1.008,-274.109,-181.885,-378.296,0,0,0,
,-0.507,0.438,0.89,-477.601,-205.323,-268.921,0,0,0,
,-0.693,0.647,0.728,-580.201,-245.24,-137.513,0,0,0,
,-0.926,0.771,0.637,-481.385,-250.855,-3.479,0,0,0,
,-1.07,0.706,0.537,-251.954,-160.218,124.755,0,0,0,
,-1.047,0.454,0.467,-119.324,-56.763,260.192,0,0,0,
,-1.011,0.246,0.358,-149.598,-43.152,401.001,0,0,0,
,-1.04,0.164,0.375,-205.018,-40.101,509.399,0,0,0,
,-1.054,0.06,0.406,-160.523,13.855,585.449,0,0,0,
,-0.894,-0.39,0.604,-188.843,92.651,583.984,0,0,0,
,-0.877,-0.433,0.673,-144.837,90.576,515.258,0,0,0,
,-0.81,-0.432,0.779,-33.509,104.98,398.864,0,0,0,
,-0.707,-0.486,0.86,118.225,129.638,251.281,0,0,0,
,-0.584,-0.499,0.957,217.712,125.244,95.336,0,0,0,
,-0.499,-0.533,0.998,226.379,125.427,-72.632,0,0,0,
,-0.422,-0.489,1.057,217.956,119.018,-195.679,0,0,0,
,-0.337,-0.39,1.143,245.422,133.972,-325.379,0,0,0,
,-0.228,-0.312,1.185,324.585,185.302,-442.688,0,0,0,
,0.305,-0.046,1.305,482.238,186.523,-657.471,0,0,0,
,0.339,0.057,1.326,488.891,103.515,-661.866,0,0,0,
,0.316,0.098,1.303,476.928,31.005,-644.898,0,0,0,
,0.375,0.132,1.676,276.367,-132.508,-558.899,0,0,0,
,0.195,0.033,1.106,-160.645,-201.294,-518.372,0,0,0,
,-0.074,0.309,0.839,-179.322,-235.474,-356.263,0,0,0,
,-0.158,0.499,0.987,-133.667,-181.58,-377.442,0,0,0,
,-0.175,0.387,0.964,-68.543,-136.414,-311.463,0,0,0,
,-0.391,0.302,0.816,-314.576,-176.941,-226.441,0,0,0,
,-0.629,0.266,0.636,-654.725,-213.623,-114.014,0,0,0,
,-0.916,0.591,0.561,-766.846,-228.76,65.246,0,0,0,
,-1.183,0.695,0.48,-643.494,-172.852,111.694,0,0,0,
,-1.279,0.635,0.402,-334.473,-26.246,259.643,0,0,0,
,-1.133,-0.06,0.487,-63.294,68.969,612.426,0,0,0,
,-1.043,-0.202,0.524,-250.123,97.106,679.138,0,0,0,
,-0.954,-0.215,0.64,-326.416,77.148,696.655,0,0,0,
,-0.926,-0.334,0.685,-275.025,65.246,646.545,0,0,0,
,-0.907,-0.424,0.754,-92.53,68.176,561.035,0,0,0,
,-0.84,-0.545,0.879,83.068,75.378,393.493,0,0,0,
,-0.456,-0.48,1.003,167.48,55.236,-85.022,0,0,0,
,-0.422,-0.573,1.08,270.752,130.859,-330.872,0,0,0,
,0.122,-0.135,1.315,380.676,144.897,-664.368,0,0,0,
,0.225,0.052,1.374,476.257,121.215,-685.425,0,0,0,
,0.328,0.168,1.393,567.566,47.18,-705.811,0,0,0,
,0.329,0.162,1.346,541.992,-36.133,-699.646,0,0,0,
,0.234,0.088,1.214,374.511,-132.203,-650.818,0,0,0,
,-0.307,0.152,1.013,-932.435,-312.806,-424.134,0,0,0,
,-0.531,0.607,0.772,-1221.131,-410.462,-235.291,0,0,0,
,-0.871,1.063,0.57,-916.077,-445.74,-96.924,0,0,0,
,-1.112,0.997,0.536,-386.963,-319.886,-73.609,0,0,0,
,-1.103,0.638,0.464,-25.696,-168.274,99.548,0,0,0,
,-0.946,-0.219,0.446,-343.689,151.672,466.247,0,0,0,
,-0.843,-0.265,0.596,-224.732,212.341,343.811,0,0,0,
,-0.716,-0.257,0.738,-91.248,244.506,247.985,0,0,0,
,-0.557,-0.194,0.873,72.326,251.709,99.06,0,0,0,
,-0.422,-0.165,1.026,312.622,255.066,-62.256,0,0,0,
,-0.31,-0.224,1.173,536.193,261.474,-211.914,0,0,0,
,-0.175,-0.28,1.265,554.382,248.047,-371.582,0,0,0,
,0.039,-0.117,1.318,512.207,192.749,-447.51,0,0,0,
,0.144,0.036,1.401,588.745,84.655,-517.823,0,0,0,
,0.182,0.18,1.45,663.269,0.732,-554.749,0,0,0,
,0.213,0.243,1.447,702.514,-100.647,-563.05,0,0,0,
,0.134,0.191,1.367,652.526,-216.614,-573.548,0,0,0,
,-0.021,0.113,1.273,450.805,-320.191,-556.275,0,0,0,
,-0.241,0.122,1.173,133.178,-403.626,-528.87,0,0,0,
,-0.377,0.178,1.074,-332.886,-456.177,-484.375,0,0,0,
,-0.569,0.267,0.897,-877.076,-539.551,-386.414,0,0,0,
,-0.789,0.447,0.642,-1290.65,-587.281,-243.409,0,0,0,
,-1.041,0.683,0.382,-1404.969,-549.012,-83.924,0,0,0,
,-1.185,0.789,0.167,-1087.708,-394.837,54.992,0,0,0,
,-1.214,0.606,0.043,-728.76,-221.619,177.124,0,0,0,
,-1.195,0.336,-0.024,-583.069,-66.895,307.983,0,0,0,
,-1.187,0.223,-0.088,-512.146,84.289,439.026,0,0,0,
,-1,-0.215,0.44,257.141,380.615,472.29,0,0,0,
,-0.9,-0.408,0.636,398.498,399.231,340.332,0,0,0,
,-0.768,-0.539,0.793,500.488,395.691,166.32,0,0,0,
,-0.614,-0.619,0.931,539.245,407.226,-45.472,0,0,0,
,-0.442,-0.611,1.118,489.318,391.723,-244.996,0,0,0,
,-0.255,-0.453,1.294,422.241,353.027,-433.594,0,0,0,
,-0.072,-0.143,1.547,410.522,257.568,-565.491,0,0,0,
,0.115,0.191,1.72,453.552,120.178,-613.953,0,0,0,
,0.265,0.46,1.697,525.451,-47.913,-576.355,0,0,0,
,0.245,0.499,1.465,559.57,-217.102,-522.156,0,0,0,
,0.037,0.39,1.231,463.012,-366.517,-451.539,0,0,0,
,-0.287,0.268,1.084,214.66,-439.209,-364.197,0,0,0,
,-0.617,0.317,0.838,-211.853,-433.472,-281.128,0,0,0,
,-0.85,0.485,0.548,-615.662,-412.293,-189.698,0,0,0,
,-1.084,0.649,0.235,-880.982,-364.441,-38.392,0,0,0,
,-1.179,0.846,-0.03,-864.563,-263.184,151.123,0,0,0,
,-1.203,0.812,-0.141,-566.895,-148.56,285.888,0,0,0,
,-1.166,0.416,-0.065,-296.509,3.662,395.385,0,0,0,
,-1.112,0.085,0.036,-316.712,111.328,509.338,0,0,0,
,-1.08,-0.229,0.254,-494.568,189.758,548.156,0,0,0,
,-1.079,-0.389,0.412,-658.631,264.831,510.254,0,0,0,
,-1.016,-0.408,0.536,-771.363,260.864,397.949,0,0,0,
,-0.922,-0.289,0.688,-627.32,243.652,248.474,0,0,0,
,-0.794,-0.197,0.843,-311.524,254.638,56.152,0,0,0,
,-0.605,-0.139,1.031,112.487,232.666,-113.526,0,0,0,
,-0.49,-0.24,1.231,450.256,221.557,-329.834,0,0,0,
,-0.306,-0.264,1.315,506.591,213.195,-501.038,0,0,0,
,0.112,0.312,1.44,418.579,35.583,-625.855,0,0,0,
,0.209,0.57,1.44,563.842,-75.196,-591.675,0,0,0,
,0.19,0.637,1.362,671.814,-188.355,-540.772,0,0,0,
,-1.255,0.375,-0.157,-182.923,71.838,353.881,0,0,0,
,-1.079,0.141,0.001,-315.491,230.285,491.516,0,0,0,
,-1.036,0.067,0.291,-392.456,273.01,544.067,0,0,0,
,-1.032,-0.112,0.475,-350.892,342.895,502.929,0,0,0,
,-0.997,-0.315,0.672,-261.109,349.426,410.949,0,0,0,
,-0.747,-0.159,1.185,171.264,99.365,-51.575,0,0,0,
,-0.66,-0.167,1.305,425.659,75.683,-249.878,0,0,0,
,-0.474,-0.224,1.351,523.864,82.336,-389.893,0,0,0,
,-0.233,-0.033,1.287,435.73,68.298,-461.609,0,0,0,
,-0.037,0.252,1.29,431.762,5.31,-486.695,0,0,0,
,0.061,0.527,1.343,578.125,-64.576,-436.707,0,0,0,
,0.081,0.576,1.3,738.037,-126.16,-403.382,0,0,0,
,0.02,0.427,1.142,739.685,-194.458,-355.408,0,0,0,
,-0.145,0.272,0.988,497.009,-269.471,-297.059,0,0,0,
,-0.425,0.276,0.785,20.752,-313.843,-232.361,0,0,0,
,-0.704,0.376,0.571,-356.507,-306.885,-184.51,0,0,0,
,-0.968,0.541,0.258,-629.822,-232.239,-88.868,0,0,0,
,-1.173,0.587,-0.141,-264.039,127.014,294.799,0,0,0,
,-1.171,0.237,0.139,-206.665,214.721,389.16,0,0,0,
,-1.018,-0.01,0.25,-402.649,320.251,469.238,0,0,0,
,-1.091,-0.117,0.443,-536.377,305.359,445.312,0,0,0,
,-1.069,-0.254,0.58,-570.557,369.384,397.827,0,0,0,
,-0.917,-0.229,0.653,-595.704,366.394,326.294,0,0,0,
,-0.86,-0.127,0.804,-460.877,306.335,204.467,0,0,0,
,-0.783,-0.058,0.892,-133.179,264.16,65.246,0,0,0,
,-0.694,-0.078,1.011,192.382,190.734,-94.178,0,0,0,
,-0.609,-0.17,1.069,425.781,162.597,-252.503,0,0,0,
,-0.461,-0.182,1.099,479.065,138.855,-409.546,0,0,0,
,-0.102,0.278,1.19,558.044,64.148,-561.707,0,0,0,
,0.009,0.463,1.291,694.275,0.488,-573.67,0,0,0,
,0.082,0.532,1.313,745.178,-88.379,-541.504,0,0,0,
,0.032,0.502,1.257,689.27,-197.388,-484.864,0,0,0,
,-0.124,0.448,1.128,474.731,-286.744,-395.752,0,0,0,
,-0.656,0.516,0.741,-267.395,-369.507,-193.909,0,0,0,
,-1.163,0.736,-0.017,-297.791,-75.562,377.929,0,0,0,
,-1.166,0.383,0.026,-164.063,66.528,491.211,0,0,0,
,-1.096,0.064,0.12,-249.512,182.8,611.877,0,0,0,
,-1.036,-0.153,0.277,-393.677,262.024,651.062,0,0,0,
,-1.014,-0.288,0.453,-539.307,288.391,612.243,0,0,0,
,-0.985,-0.338,0.658,-497.498,299.194,520.141,0,0,0,
,-0.848,-0.295,0.786,-352.478,272.644,367.248,0,0,0,
,-0.711,-0.25,0.946,-68.787,221.618,165.039,0,0,0,
,-0.608,-0.293,1.097,274.597,176.696,-54.749,0,0,0,
,-0.342,-0.42,1.206,421.814,110.046,-480.286,0,0,0,
,-0.137,-0.127,1.186,310.791,61.34,-591.98,0,0,0,
,-0.01,0.244,1.273,376.159,-2.503,-640.137,0,0,0,
,0.057,0.467,1.329,545.959,-62.134,-639.344,0,0,0,
,0.063,0.511,1.294,650.756,-139.771,-605.164,0,0,0,
,-0.045,0.459,1.231,617.37,-221.924,-548.279,0,0,0,
,-0.244,0.362,1.094,409.912,-273.133,-476.563,0,0,0,
,-0.439,0.359,0.982,98.816,-298.584,-391.358,0,0,0,
,-0.605,0.394,0.827,-304.2,-316.59,-315.613,0,0,0,
,-0.773,0.465,0.665,-668.824,-336.426,-239.197,0,0,0,
,-0.887,0.531,0.418,-955.262,-342.041,-142.151,0,0,0,
,-0.969,0.619,0.223,-1076.111,-347.046,-49.256,0,0,0,
,-1.101,0.748,-0.04,-933.533,-290.711,10.62,0,0,0,
,-1.196,0.607,-0.152,-741.761,-192.322,54.992,0,0,0,
,-1.177,0.474,-0.176,-632.081,-32.41,203.491,0,0,0,
,-1.138,0.426,-0.136,-498.719,103.576,325.317,0,0,0,
,-1.11,0.229,0.055,-262.513,277.038,386.413,0,0,0,
,-1.077,0.113,0.235,-26.612,375.244,421.936,0,0,0,
,-0.796,-0.374,0.845,190.002,413.879,128.234,0,0,0,
,-0.69,-0.284,1.077,195.984,316.406,-31.922,0,0,0,
,-0.564,-0.206,1.225,289.062,252.319,-226.502,0,0,0,
,-0.374,-0.016,1.37,373.169,161.071,-398.194,0,0,0,
,-0.2,0.23,1.477,442.077,31.799,-520.935,0,0,0,
,-0.008,0.58,1.574,556.823,-111.756,-523.072,0,0,0,
,0.106,0.805,1.489,672.363,-242.615,-455.201,0,0,0,
,0.047,0.853,1.273,797.851,-395.569,-355.286,0,0,0,
,-0.243,0.615,1.068,865.356,-482.911,-307.373,0,0,0,
,-0.485,0.466,0.898,737.915,-473.084,-234.131,0,0,0,
,-0.648,0.382,0.697,397.461,-420.96,-139.405,0,0,0,
,-0.803,0.343,0.441,2.624,-367.615,-34.607,0,0,0,
,-0.97,0.378,0.139,-448.731,-313.294,92.468,0,0,0,
,-1.222,0.285,-0.259,-815.064,-232.666,219.482,0,0,0,
,-1.385,0.584,-0.258,-1106.202,-7.813,401.794,0,0,0,
,-1.216,0.799,-0.279,-817.688,148.071,611.999,0,0,0,
,-1.203,0.512,0.106,-270.264,211.731,669.738,0,0,0,
,-1.068,-0.485,0.472,-98.999,294.372,657.47,0,0,0,
,-1.054,-0.653,0.603,-283.204,298.584,528.137,0,0,0,
,-0.922,-0.551,0.674,-378.846,314.88,346.801,0,0,0,
,-0.818,-0.358,0.819,-228.943,288.818,152.893,0,0,0,
,-0.674,-0.219,1.02,150.634,295.532,-29.725,0,0,0,
,-0.525,-0.26,1.188,473.816,315.918,-253.296,0,0,0,
,-0.329,-0.325,1.369,522.155,285.705,-427.552,0,0,0,
,-0.068,-0.049,1.475,381.775,189.453,-515.259,0,0,0,
,0.119,0.331,1.57,332.397,64.819,-547.364,0,0,0,
,0.249,0.67,1.613,397.827,-86.182,-491.15,0,0,0,
,0.253,0.779,1.349,428.405,-226.99,-437.195,0,0,0,
,-0.033,0.653,1.034,336.242,-389.283,-348.206,0,0,0,
,-0.432,0.68,0.754,108.032,-447.815,-262.024,0,0,0,
,-0.792,0.753,0.417,-171.021,-365.357,-156.067,0,0,0,
,-0.987,0.88,-0.039,-378.235,-258.301,-10.804,0,0,0,
,-1.146,0.873,-0.236,-425.11,-154.541,188.781,0,0,0,
,-1.27,0.626,-0.235,-324.83,-19.776,355.957,0,0,0,
,-1.286,0.148,-0.082,-267.701,103.027,468.994,0,0,0,
,-1.297,-0.31,0.183,-373.352,141.784,518.859,0,0,0,
,-1.303,-0.668,0.375,-565.369,156.128,489.441,0,0,0,
,-1.281,-0.678,0.531,-717.896,119.384,356.75,0,0,0,
,-1.133,-0.492,0.669,-521.424,131.164,186.889,0,0,0,
,-0.875,-0.306,0.901,-72.266,171.386,-18.616,0,0,0,
,-0.58,-0.306,1.156,436.767,216.735,-263.123,0,0,0,
,-0.29,-0.35,1.352,608.703,224.06,-492.188,0,0,0,
,-3.892,1.16,-0.482,11154.196,7665.983,12163.481,0,0,0,
,0.192,0.349,1.486,378.296,64.697,-615.845,0,0,0,
,0.343,0.697,1.498,494.445,-43.763,-549.927,0,0,0,
,0.277,0.785,1.287,606.75,-180.359,-464.539,0,0,0,
,-0.054,0.646,1.045,583.435,-309.082,-382.019,0,0,0,
,-0.516,0.653,0.903,417.785,-333.497,-256.409,0,0,0,
,-0.772,0.751,0.595,215.942,-280.213,-157.166,0,0,0,
,-1.005,0.831,0.279,23.742,-255.005,-13.977,0,0,0,
,-1.247,0.75,0.034,-71.167,-206.543,153.442,0,0,0,
,-1.334,0.523,-0.043,-165.772,-112.366,312.805,0,0,0,
,-1.343,0.135,-0.061,-314.576,-21.119,438.11,0,0,0,
,-1.35,-0.23,0.066,-465.882,37.353,524.78,0,0,0,
,-1.359,-0.534,0.206,-648.194,101.867,540.466,0,0,0,
,-1.363,-0.672,0.32,-841.553,146.423,498.901,0,0,0,
,-1.269,-0.554,0.463,-862.915,194.03,384.521,0,0,0,
,-1.07,-0.331,0.682,-566.04,228.637,211.853,0,0,0,
,-0.808,-0.191,0.97,-20.508,259.216,6.591,0,0,0,
,-0.358,-0.416,1.281,633.972,243.164,-483.765,0,0,0,
,-0.018,-0.153,1.356,484.314,177.124,-619.08,0,0,0,
,0.253,0.344,1.414,428.405,48.034,-679.505,0,0,0,
,0.292,0.674,1.314,548.767,-92.347,-642.273,0,0,0,
,0.163,0.743,1.171,618.347,-252.869,-578.675,0,0,0,
,-0.177,0.662,1.073,476.562,-360.413,-459.656,0,0,0,
,-0.636,0.692,0.851,73.608,-393.982,-328.37,0,0,0,
,-0.974,0.83,0.474,-334.107,-366.211,-157.593,0,0,0,
,-1.159,1.002,0.123,-588.318,-303.345,77.636,0,0,0,
,-1.287,1.017,-0.147,-590.088,-233.338,323.974,0,0,0,
,-1.352,0.688,-0.161,-382.203,-102.234,510.437,0,0,0,
,-1.313,0.018,-0.036,-299.988,44.433,660.156,0,0,0,
,-1.303,-0.599,0.107,-525.025,134.887,655.517,0,0,0,
,-1.32,-0.874,0.23,-839.844,172.119,621.215,0,0,0,
,-1.229,-0.708,0.466,-938.904,212.158,421.753,0,0,0,
,-0.964,-0.435,0.724,-557.618,270.385,206.604,0,0,0,
,-0.654,-0.293,1.008,95.336,278.686,-65.857,0,0,0,
,-0.405,-0.357,1.374,559.631,254.272,-344.056,0,0,0,
,-0.069,-0.326,1.635,625.61,166.198,-538.208,0,0,0,
,0.27,0.385,1.789,378.54,-1.221,-482.789,0,0,0,
,0.395,0.842,1.589,437.866,-176.27,-339.295,0,0,0,
,0.181,1.104,1.132,518.432,-340.577,-185.486,0,0,0,
,-1.025,0.376,0.296,-136.841,-181.153,-40.955,0,0,0,
,-1.126,0.705,-0.113,-574.219,-140.564,140.503,0,0,0,
,-1.337,0.876,-0.231,-533.081,-71.167,308.776,0,0,0,
,-1.297,-0.547,0.103,-395.997,157.898,503.723,0,0,0,
,-1.298,-0.659,0.243,-594.3,151.123,499.267,0,0,0,
,-1.311,-0.55,0.388,-530.396,122.497,398.864,0,0,0,
,-1.178,-0.682,0.846,159.546,206.054,44.311,0,0,0,
,-0.698,-0.741,0.978,252.258,295.349,-198.426,0,0,0,
,-0.499,-0.436,1.021,232.727,169.616,-318.97,0,0,0,
,-0.423,-0.15,1.299,401.916,188.049,-570.923,0,0,0,
,-0.044,0.21,1.335,486.633,218.567,-563.172,0,0,0,
,0.218,0.684,1.443,607.849,70.678,-513.001,0,0,0,
,0.2,0.842,1.335,812.5,-69.336,-422.242,0,0,0,
,-0.112,0.624,1.122,959.472,-220.337,-288.697,0,0,0,
,-0.616,0.266,0.929,724.121,-214.539,-187.5,0,0,0,
,-0.942,0.23,0.666,167.114,-138.367,-6.958,0,0,0,
,-1.122,0.561,0.322,-388.001,-85.144,188.964,0,0,0,
,-1.234,0.842,0.068,-593.384,-55.542,397.094,0,0,0,
,-1.272,0.83,-0.006,-376.893,26.733,581.848,0,0,0,
,-1.188,0.333,0.063,-161.56,88.378,666.198,0,0,0,
,-1.148,-0.201,0.203,-243.531,112.732,692.138,0,0,0,
,-1.112,-0.601,0.288,-557.068,132.751,669.555,0,0,0,
,-1.091,-0.656,0.444,-773.316,132.873,593.139,0,0,0,
,-0.994,-0.556,0.654,-699.219,132.629,374.939,0,0,0,
,-0.531,-0.311,1.089,154.113,110.778,-110.474,0,0,0,
,-0.395,-0.537,1.213,643.737,76.782,-460.694,0,0,0,
,-0.245,-0.692,1.182,657.104,76.11,-698.609,0,0,0,
,-0.21,0.581,1.107,644.348,-257.447,-640.503,0,0,0,
,-0.537,0.552,1.007,392.151,-318.238,-504.578,0,0,0,
,-0.886,0.642,0.748,-57.801,-356.995,-325.745,0,0,0,
,-1.098,0.798,0.269,-417.908,-319.214,-129.761,0,0,0,
,-1.211,0.928,-0.063,-580.933,-271.668,120.178,0,0,0,
,-1.259,0.773,-0.217,-446.656,-165.284,346.069,0,0,0,
,-1.263,0.201,-0.166,-280.457,-22.95,468.994,0,0,0,
,-1.291,-0.391,-0.025,-438.416,106.933,552.856,0,0,0,
,-1.292,-0.734,0.136,-730.896,182.373,551.88,0,0,0,
,-1.242,-0.67,0.366,-916.382,219.665,447.815,0,0,0,
,-1.099,-0.381,0.665,-717.591,219.848,269.897,0,0,0,
,-0.887,-0.244,0.925,-156.922,212.768,65.795,0,0,0,
,-0.649,-0.331,1.184,411.804,189.758,-199.769,0,0,0,
,-0.451,-0.547,1.36,640.991,161.499,-454.224,0,0,0,
,-0.157,-0.336,1.411,398.132,115.051,-534.607,0,0,0,
,0.047,0.225,1.394,204.712,1.098,-536.744,0,0,0,
,-0.349,0.453,0.971,503.112,-233.033,-373.291,0,0,0,
,-0.659,0.472,0.7,176.941,-253.54,-266.358,0,0,0,
,-0.953,0.619,0.36,-160.645,-232.361,-160.889,0,0,0,
,-1.148,0.814,-0.012,-323.487,-172.425,2.99,0,0,0,
,-1.26,0.738,-0.193,-293.457,-98.938,200.317,0,0,0,
,-1.307,0.36,-0.264,-277.222,22.216,356.75,0,0,0,
,-1.289,-0.134,-0.205,-402.1,99.792,484.619,0,0,0,
,-1.369,-0.486,-0.091,-630.005,148.315,496.215,0,0,0,
,-1.432,-0.6,0.194,-811.036,189.026,437.011,0,0,0,
,-1.314,-0.503,0.497,-770.874,217.956,303.955,0,0,0,
,-1.059,-0.273,0.82,-448.365,207.763,145.263,0,0,0,
,-0.244,-0.382,1.53,500.915,137.146,-482.056,0,0,0,
,0.059,0.007,1.553,290.893,41.992,-507.142,0,0,0,
,0.208,0.497,1.495,279.052,-88.685,-476.807,0,0,0,
,0.125,0.726,1.319,489.807,-205.811,-404.602,0,0,0,
,-0.812,0.48,0.549,158.081,-297.364,-198.609,0,0,0,
,-1.026,0.613,0.101,-231.324,-240.235,-59.388,0,0,0,
,-1.121,0.795,-0.329,-493.897,-210.022,87.89,0,0,0,
,-1.25,0.825,-0.452,-438.294,-122.315,332.336,0,0,0,
,-1.275,0.443,-0.422,-296.143,15.075,510.192,0,0,0,
,-1.277,-0.045,-0.199,-403.565,126.648,577.148,0,0,0,
,-1.182,-0.581,0.679,-774.964,270.568,378.967,0,0,0,
,-1.009,-0.351,0.965,-465.943,249.878,213.012,0,0,0,
,-0.793,-0.261,1.181,148.986,202.575,-29.175,0,0,0,
,-0.659,-0.52,1.369,666.626,179.26,-360.047,0,0,0,
,-0.423,-0.659,1.373,689.148,177.063,-572.693,0,0,0,
,0.074,0.698,1.287,535.4,-59.449,-549.439,0,0,0,
,-0.045,0.735,1.147,711.12,-125.245,-514.954,0,0,0,
,-0.356,0.563,0.993,633.361,-206.665,-395.264,0,0,0,
,-0.782,0.512,0.767,246.276,-261.658,-297.303,0,0,0,
,-1.05,0.638,0.362,-212.403,-236.145,-169.495,0,0,0,
,-1.167,0.86,-0.059,-506.897,-210.328,28.991,0,0,0,
,-1.28,0.891,-0.265,-497.742,-158.631,216.064,0,0,0,
,-1.315,0.6,-0.292,-300.049,-29.969,386.23,0,0,0,
,-1.301,-0.476,-0.024,-476.319,175.354,547.729,0,0,0,
,-1.302,-0.709,0.17,-739.869,265.38,540.405,0,0,0,
,-1.225,-0.714,0.427,-877.259,305.664,416.565,0,0,0,
,-1.05,-0.525,0.679,-698.548,344.177,270.874,0,0,0,
,-0.828,-0.254,0.976,-275.452,316.162,83.557,0,0,0,
,-0.652,-0.183,1.36,317.26,271.423,-186.402,0,0,0,
,-0.42,-0.304,1.523,585.144,260.131,-462.952,0,0,0,
,-0.051,-0.135,1.567,471.557,178.955,-550.782,0,0,0,
,0.211,0.314,1.49,325.134,34.423,-541.321,0,0,0,
,0.255,0.688,1.305,392.028,-109.986,-439.82,0,0,0,
,0.071,0.705,1.122,564.941,-209.229,-431.153,0,0,0,
,-0.237,0.516,0.943,609.008,-223.145,-355.896,0,0,0,
,-0.568,0.38,0.774,321.533,-221.009,-293.457,0,0,0,
,-0.888,0.511,0.481,-165.65,-224.305,-173.829,0,0,0,
,-1.086,0.818,0.099,-538.819,-217.164,-28.748,0,0,0,
,-1.267,1.047,-0.141,-523.743,-198.121,157.47,0,0,0,
,-1.336,0.819,-0.202,-188.416,-93.018,325.073,0,0,0,
,-1.313,0.196,-0.139,-48.829,21.362,450.622,0,0,0,
,-1.291,-0.37,-0.023,-257.996,99.121,569.091,0,0,0,
,-1.303,-0.654,0.07,-624.329,162.475,585.144,0,0,0,
,-1.279,-0.697,0.293,-806.702,229.858,513.122,0,0,0,
,-0.79,-0.243,1.007,-0.184,270.019,-27.649,0,0,0,
,-0.597,-0.34,1.236,529.846,286.987,-307.312,0,0,0,
,-0.335,-0.391,1.301,584.106,306.152,-510.804,0,0,0,
,-0.038,-0.063,1.328,405.151,241.455,-528.87,0,0,0,
,0.139,0.392,1.38,401.794,127.197,-485.657,0,0,0,
,0.154,0.643,1.405,547.241,22.827,-463.623,0,0,0,
,0.089,0.613,1.352,625.061,-66.956,-414.673,0,0,0,
,-0.113,0.378,1.111,472.656,-149.537,-322.754,0,0,0,
,-0.476,0.371,0.85,37.841,-234.009,-206.482,0,0,0,
,-0.96,0.461,0.549,-410.218,-262.696,-104.798,0,0,0,
,-1.239,0.708,0.147,-713.623,-192.444,43.335,0,0,0,
,-1.3,0.993,-0.193,-640.748,-106.568,270.019,0,0,0,
,-1.379,0.883,-0.228,-276.978,-23.255,335.632,0,0,0,
,-1.34,0.319,-0.157,57.8,121.338,453.796,0,0,0,
,-1.245,-0.233,0.012,-41.382,188.415,523.498,0,0,0,
,-1.195,-0.557,0.161,-350.464,227.905,558.41,0,0,0,
,-1.131,-0.62,0.374,-608.826,226.562,511.23,0,0,0,
,-1.072,-0.511,0.59,-632.447,233.581,367.126,0,0,0,
,-0.92,-0.327,0.856,-369.812,220.642,165.344,0,0,0,
,-0.73,-0.194,1.004,53.161,230.285,-30.579,0,0,0,
,-0.524,-0.235,1.09,441.162,273.498,-292.298,0,0,0,
,-0.3,-0.305,1.13,567.077,305.359,-498.352,0,0,0,
,-0.013,-0.004,1.201,436.157,243.103,-607.361,0,0,0,
,0.137,0.378,1.286,451.843,156.616,-646.363,0,0,0,
,0.162,0.625,1.377,642.761,30.456,-605.591,0,0,0,
,0.078,0.564,1.346,725.219,-78.98,-572.815,0,0,0,
,-0.166,0.4,1.204,566.467,-222.29,-480.225,0,0,0,
,-0.573,0.308,1.04,179.687,-331.727,-321.412,0,0,0,
,-0.972,0.373,0.795,-205.506,-346.07,-156.8,0,0,0,
,-1.198,0.457,0.47,-488.282,-288.331,-1.099,0,0,0,
,-1.288,0.633,0.115,-549.378,-233.46,206.787,0,0,0,
,-1.394,0.592,-0.035,-335.755,-145.264,369.629,0,0,0,
,-1.391,0.193,-0.114,-104.31,-6.287,465.759,0,0,0,
,-1.308,-0.166,-0.146,-116.639,118.835,537.841,0,0,0,
,-1.259,-0.478,-0.005,-221.497,196.594,519.348,0,0,0,
,-1.216,-0.641,0.201,-375.184,273.986,477.356,0,0,0,
,-1.052,-0.483,0.393,-484.803,304.748,378.418,0,0,0,
,-0.879,-0.247,0.703,-251.282,311.035,204.773,0,0,0,
,-0.179,-0.526,1.409,672.79,385.376,-490.174,0,0,0,
,0.175,-0.303,1.509,417.358,279.235,-645.508,0,0,0,
,0.396,0.132,1.529,302.185,113.891,-673.035,0,0,0,
,0.377,0.392,1.523,396.728,-62.867,-652.1,0,0,0,
,-0.671,0.472,0.84,-221.192,-388.123,-375.794,0,0,0,
,-1.212,0.643,0.422,-651.429,-409.424,-269.654,0,0,0,
,-1.355,0.884,-0.052,-796.509,-329.59,-64.576,0,0,0,
,-1.395,1.059,-0.329,-661.133,-251.038,136.963,0,0,0,
,-1.453,0.787,-0.408,-338.807,-92.896,339.416,0,0,0,
,-1.365,0.312,-0.326,-170.289,89.599,482.849,0,0,0,
,-1.275,-0.222,-0.13,-299.134,221.313,575.317,0,0,0,
,-1.218,-0.466,0.116,-604.248,269.958,586.914,0,0,0,
,-1.107,-0.398,0.378,-729.432,256.225,483.154,0,0,0,
,-0.942,-0.213,0.733,-459.351,242.004,304.748,0,0,0,
,-0.713,-0.182,1.051,167.541,244.445,56.762,0,0,0,
,-0.508,-0.388,1.39,749.694,238.586,-216.553,0,0,0,
,-0.38,-0.643,1.532,948.974,216.308,-447.571,0,0,0,
,-0.205,-0.709,1.452,642.212,158.081,-597.779,0,0,0,
,0.003,-0.397,1.468,310.547,83.618,-657.105,0,0,0,
,0.088,0.041,1.491,196.35,-9.339,-638.123,0,0,0,
,0.091,0.366,1.446,210.022,-63.599,-574.341,0,0,0,
,0.027,0.551,1.314,265.38,-152.344,-457.703,0,0,0,
,-0.136,0.643,1.099,325.5,-236.451,-334.229,0,0,0,
,-0.45,0.607,0.896,303.405,-280.091,-244.324,0,0,0,
,-0.767,0.587,0.615,56.945,-280.579,-127.747,0,0,0,
,-0.953,0.679,0.363,-250.306,-231.446,22.461,0,0,0,
,-1.08,0.84,0.015,-396.851,-155.518,204.284,0,0,0,
,-1.221,0.832,-0.173,-377.869,-68.848,364.563,0,0,0,
,-1.251,0.604,-0.145,-220.398,53.955,470.276,0,0,0,
,-1.194,0.125,0.019,-128.479,158.264,546.447,0,0,0,
,-1.165,-0.354,0.193,-210.511,219.726,556.884,0,0,0,
,-1.184,-0.683,0.419,-416.077,214.111,513.549,0,0,0,
,-1.14,-0.673,0.578,-563.965,174.926,415.283,0,0,0,
,-0.997,-0.511,0.785,-365.723,155.029,196.106,0,0,0,
,-0.814,-0.433,0.986,88.806,198.181,-62.378,0,0,0,
,-0.572,-0.552,1.136,533.569,269.531,-348.267,0,0,0,
,-0.284,-0.683,1.264,608.642,312.927,-651.795,0,0,0,
,0.063,-0.476,1.326,344.909,288.696,-755.494,0,0,0,
,0.335,0.067,1.44,208.801,191.772,-751.893,0,0,0,
,0.438,0.47,1.506,335.388,57.19,-719.117,0,0,0,
,0.386,0.593,1.42,479.248,-113.526,-689.026,0,0,0,
,0.05,0.57,1.161,404.358,-280.518,-603.516,0,0,0,
,-0.463,0.631,0.917,62.744,-369.385,-480.53,0,0,0,
,-1.237,0.908,0.32,-358.704,-231.446,-221.68,0,0,0,
,-1.29,0.909,0.067,-368.653,-129.639,22.705,0,0,0,
,-1.405,0.685,-0.034,-309.082,-51.758,239.868,0,0,0,
,-1.475,0.343,-0.035,-230.713,58.044,436.584,0,0,0,
,-1.442,-0.154,0.096,-148.316,161.499,528.564,0,0,0,
,-1.405,-0.564,0.217,-238.831,196.716,529.846,0,0,0,
,-1.348,-0.833,0.352,-460.511,207.58,449.646,0,0,0,
,-1.192,-0.619,0.446,-693.604,161.865,309.509,0,0,0,
,-1.031,-0.267,0.619,-511.048,150.94,111.877,0,0,0,
,-0.756,0.001,0.805,-12.879,252.685,-95.704,0,0,0,
,-0.442,-0.038,1.056,600.036,387.817,-321.961,0,0,0,
,-0.117,-0.231,1.256,772.033,423.278,-536.072,0,0,0,
,0.228,-0.161,1.397,546.997,359.436,-608.216,0,0,0,
,0.486,0.181,1.573,332.092,183.166,-586.67,0,0,0,
,0.539,0.422,1.598,274.719,17.883,-500.489,0,0,0,
,0.404,0.465,1.431,183.288,-172.913,-425.904,0,0,0,
,0.052,0.385,1.161,18.92,-315.43,-312.378,0,0,0,
,-0.42,0.489,0.92,-304.749,-412.964,-179.749,0,0,0,
,-0.863,0.569,0.671,-550.171,-407.349,-115.906,0,0,0,
,-1.086,0.57,0.443,-729.798,-377.32,-70.984,0,0,0,
,-1.113,0.529,0.177,-872.864,-361.084,-15.503,0,0,0,
,-1.213,0.484,0.015,-927.796,-387.94,48.461,0,0,0,
,-1.418,0.334,-0.065,-953.553,-326.172,102.844,0,0,0,
,-1.439,0.263,-0.176,-895.691,-155.091,213.867,0,0,0,
,-1.386,0.099,-0.163,-842.713,27.038,271.667,0,0,0,
,-1.272,0.078,-0.111,-735.84,202.636,395.202,0,0,0,
,-1.167,0.135,0.122,-444.336,331.421,377.685,0,0,0,
,-0.979,0.105,0.467,13.244,433.532,287.719,0,0,0,
,-0.796,-0.168,0.803,457.031,481.201,105.407,0,0,0,
,-0.594,-0.403,1.053,667.968,485.107,-140.503,0,0,0,
,-0.311,-0.333,1.334,636.596,378.54,-339.051,0,0,0,
,-0.083,-0.089,1.65,670.41,238.525,-531.983,0,0,0,
,0.08,0.13,1.794,734.68,84.655,-664.49,0,0,0,
,0.235,0.349,1.821,678.466,-74.036,-644.165,0,0,0,
,0.27,0.471,1.465,539.062,-220.276,-563.355,0,0,0,
,0.026,0.327,1.125,381.347,-310.669,-466.614,0,0,0,
,-0.241,0.428,1.021,56.579,-374.634,-296.692,0,0,0,
,-0.635,0.58,0.867,-274.72,-426.026,-186.585,0,0,0,
,-0.915,0.742,0.522,-467.652,-377.137,-130.738,0,0,0,
,-1.118,1.075,0.027,-555.848,-341.858,21.362,0,0,0,
,-1.235,1.149,-0.225,-363.038,-241.15,185.363,0,0,0,
,-1.277,0.914,-0.33,-57.923,-88.013,338.562,0,0,0,
,-1.266,0.478,-0.366,63.11,65.673,443.359,0,0,0,
,-1.228,0.154,-0.31,34.973,213.44,577.575,0,0,0,
,-1.167,-0.162,-0.092,-39.307,325.5,619.995,0,0,0,
,-1.174,-0.471,0.228,-90.149,393.493,518.066,0,0,0,
,-1.083,-0.623,0.49,-179.017,446.472,408.569,0,0,0,
,-0.873,-0.549,0.794,-239.014,443.786,198.852,0,0,0,
,-0.636,-0.298,1.069,-95.704,390.869,14.709,0,0,0,
,-0.433,-0.072,1.437,246.826,331.848,-188.477,0,0,0,
,-0.217,-0.003,1.65,539.245,247.741,-368.47,0,0,0,
,0.029,0.067,1.745,565.246,114.502,-465.332,0,0,0,
,0.272,0.365,1.741,484.008,-89.356,-418.763,0,0,0,
,0.237,0.439,1.469,539.489,-241.089,-417.908,0,0,0,
,0.004,0.318,1.284,572.509,-356.263,-367.432,0,0,0,
,-0.209,0.195,1.141,476.318,-383.851,-358.033,0,0,0,
,-0.415,0.217,1.031,235.656,-445.252,-309.51,0,0,0,
,-0.563,0.3,0.838,-96.314,-481.69,-325.745,0,0,0,
,-0.759,0.369,0.581,-435.975,-555.664,-291.077,0,0,0,
,-0.948,0.529,0.327,-725.037,-622.193,-250.794,0,0,0,
,-1.074,0.646,0.01,-922.73,-620.911,-163.636,0,0,0,
,-1.16,0.712,-0.239,-880.31,-521.485,-70.313,0,0,0,
,-1.183,0.656,-0.408,-754.212,-362.915,36.987,0,0,0,
,-1.237,0.52,-0.487,-605.713,-149.842,204.04,0,0,0,
,-1.251,0.267,-0.356,-508.606,104.187,348.022,0,0,0,
,-1.18,0.169,-0.292,-486.878,364.563,497.009,0,0,0,
,-1.1,-0.017,0.031,-334.473,501.709,528.32,0,0,0,
,-1.078,-0.209,0.352,-79.102,599.792,462.341,0,0,0,
,-0.926,-0.368,0.778,35.766,580.505,293.823,0,0,0,
,-0.766,-0.522,1.02,183.288,518.31,42.114,0,0,0,
,-0.624,-0.511,1.167,257.507,422.485,-225.708,0,0,0,
,-0.429,-0.32,1.43,335.327,294.067,-490.601,0,0,0,
,-0.227,-0.082,1.581,438.171,162.963,-635.376,0,0,0,
,0.005,0.357,1.692,539.734,33.813,-684.205,0,0,0,
,0.209,0.687,1.652,664.795,-119.202,-674.622,0,0,0,
,0.155,0.842,1.467,794.922,-294.861,-515.198,0,0,0,
,-0.104,0.691,1.205,847.351,-392.579,-419.251,0,0,0,
,-0.519,0.511,1.03,598.877,-438.904,-320.557,0,0,0,
,-0.773,0.464,0.929,160.827,-422.181,-223.45,0,0,0,
,-0.899,0.175,0.408,-539.978,-314.454,-247.62,0,0,0,
,-1.045,1.182,-0.307,-1436.158,-388.001,298.645,0,0,0,
,-1.219,1.643,-0.511,-949.769,-247.986,249.633,0,0,0,
,-1.258,1.071,-0.536,132.019,-9.4,443.054,0,0,0,
,-1.241,0.358,-0.493,330.139,138.672,507.202,0,0,0,
,-1.246,-0.131,-0.319,42.053,261.169,641.113,0,0,0,
,-1.242,-0.403,-0.011,-222.352,362.976,693.054,0,0,0,
,-1.182,-0.539,0.285,-415.833,418.884,622.253,0,0,0,
,-1.155,-0.598,0.672,-464.539,411.438,454.651,0,0,0,
,-1.051,-0.585,0.967,-433.167,391.113,261.108,0,0,0,
,-0.847,-0.341,1.111,-306.763,301.147,77.697,0,0,0,
,-0.65,-0.125,1.343,53.1,212.097,-164.124,0,0,0,
,-0.397,-0.075,1.511,410.156,141.54,-380.616,0,0,0,
,-0.103,-0.038,1.607,526.428,48.034,-517.518,0,0,0,
,0.136,0.259,1.55,419.311,-35.584,-542.786,0,0,0,
,0.281,0.619,1.404,454.101,-129.761,-443.177,0,0,0,
,0.24,0.737,1.275,719.604,-247.986,-406.128,0,0,0,
,-0.047,0.428,1.113,854.004,-307.74,-352.051,0,0,0,
,-0.295,0.182,0.971,567.871,-319.519,-258.118,0,0,0,
,-0.534,0.261,0.78,-7.752,-335.755,-206.299,0,0,0,
,-0.831,0.528,0.396,-556.275,-353.76,-108.765,0,0,0,
,-1.028,0.914,-0.084,-764.527,-315.308,-26.368,0,0,0,
,-1.182,1.064,-0.371,-603.028,-283.265,116.272,0,0,0,
,-1.297,0.77,-0.479,-279.419,-191.346,193.176,0,0,0,
,-1.33,0.235,-0.439,-180.054,-52.979,298.95,0,0,0,
,-1.436,-0.203,-0.32,-356.446,69.274,407.959,0,0,0,
,-1.44,-0.437,-0.079,-586.426,204.589,424.438,0,0,0,
,-1.408,-0.501,0.224,-657.166,310.058,361.572,0,0,0,
,-1.231,-0.459,0.547,-573.487,379.028,270.141,0,0,0,
,-0.996,-0.296,0.791,-314.209,372.741,105.102,0,0,0,
,-0.816,-0.243,1.065,69.885,344.177,-128.724,0,0,0,
,-0.55,-0.178,1.383,427.002,301.88,-342.591,0,0,0,
,-0.256,-0.127,1.662,565.979,234.802,-577.027,0,0,0,
,0.086,0.139,1.732,468.628,132.202,-648.133,0,0,0,
,0.3,0.526,1.627,415.405,-58.289,-624.573,0,0,0,
,0.186,0.705,1.458,537.475,-257.813,-509.705,0,0,0,
,-0.113,0.572,1.213,659.179,-340.271,-438.477,0,0,0,
,-0.384,0.366,0.96,582.519,-357.056,-346.68,0,0,0,
,-0.594,0.338,0.785,244.262,-346.009,-265.564,0,0,0,
,-0.779,0.454,0.498,-189.515,-331.971,-161.316,0,0,0,
,-0.928,0.653,0.176,-614.197,-310.059,-22.706,0,0,0,
,-1.127,0.877,-0.117,-810.425,-247.498,172.729,0,0,0,
,-1.22,1.072,-0.333,-731.019,-155.335,369.995,0,0,0,
,-1.292,0.904,-0.429,-440.674,-50.354,477.783,0,0,0,
,-1.307,0.414,-0.318,-267.456,86.914,618.103,0,0,0,
,-1.261,-0.032,-0.138,-333.863,191.528,728.271,0,0,0,
,-1.349,-0.353,-0.067,-407.044,299.499,732.055,0,0,0,
,-1.269,-0.633,0.232,-359.742,407.959,577.942,0,0,0,
,-1.131,-0.667,0.529,-210.633,409.912,377.685,0,0,0,
,-0.929,-0.828,0.883,6.897,396.85,22.216,0,0,0,
,-0.745,-0.612,0.983,5.188,352.356,-178.101,0,0,0,
,-0.615,-0.357,1.162,187.805,288.757,-445.496,0,0,0,
,-0.352,-0.201,1.413,496.032,275.207,-670.655,0,0,0,
,0,0.124,1.559,568.176,223.693,-732.544,0,0,0,
,0.272,0.625,1.659,618.164,71.594,-697.754,0,0,0,
,0.38,0.946,1.656,851.745,-115.906,-598.938,0,0,0,
,0.248,0.864,1.454,1072.815,-315.247,-520.569,0,0,0,
,-0.113,0.568,1.165,1001.22,-424.927,-409.974,0,0,0,
,-0.489,0.505,0.913,686.584,-449.585,-299.134,0,0,0,
,-0.647,0.496,0.69,354.065,-397.644,-275.147,0,0,0,
,-0.962,0.238,0.13,-415.894,-314.27,-275.086,0,0,0,
,-1.063,1.495,-0.177,-1134.827,-310.12,277.588,0,0,0,
,-1.141,1.39,-0.345,-243.714,-225.098,129.699,0,0,0,
,-1.302,0.467,-0.486,421.447,-100.953,313.659,0,0,0,
,-1.479,-0.271,-0.214,48.095,-22.4,473.877,0,0,0,
,-1.325,-0.405,0.119,-577.271,119.018,599.304,0,0,0,
,-1.321,-0.231,0.21,-726.319,152.343,730.651,0,0,0,
,-1.381,-0.42,0.333,-500.733,221.923,604.858,0,0,0,
,-1.215,-0.742,0.546,-471.314,328.613,442.382,0,0,0,
,-1.041,-0.526,0.656,-817.444,313.72,351.623,0,0,0,
,-0.952,-0.206,0.798,-714.295,272.888,128.906,0,0,0,
,-0.805,-0.109,0.933,-291.26,276.489,-49.317,0,0,0,
,-0.597,-0.076,0.963,78.796,248.779,-198.304,0,0,0,
,-0.451,-0.112,1.041,374.389,219.421,-359.131,0,0,0,
,-0.293,-0.162,1.112,538.757,229.797,-504.7,0,0,0,
,-0.045,0.014,1.213,498.901,245.544,-533.631,0,0,0,
,0.158,0.349,1.303,536.438,171.692,-505.005,0,0,0,
,0.189,0.448,1.354,691.04,46.63,-551.514,0,0,0,
,0.087,0.43,1.299,688.415,-71.228,-489.441,0,0,0,
,-0.183,0.339,1.185,475.097,-196.289,-449.219,0,0,0,
,-0.554,0.431,1.067,90.82,-273.56,-363.892,0,0,0,
,-0.828,0.579,0.823,-347.168,-330.445,-258.179,0,0,0,
,-1.046,0.844,0.351,-617.615,-345.398,-122.132,0,0,0,
,-1.226,1.065,-0.004,-640.748,-332.276,54.382,0,0,0,
,-1.353,0.958,-0.216,-374.39,-264.283,220.214,0,0,0,
,-1.404,0.477,-0.259,-123.902,-135.071,390.991,0,0,0,
,-1.418,-0.059,-0.236,-227.295,8.667,543.64,0,0,0,
,-1.398,-0.43,-0.173,-482.3,134.582,636.596,0,0,0,
,-1.348,-0.577,-0.037,-726.502,251.648,591.674,0,0,0,
,-1.207,-0.465,0.074,-820.496,339.66,462.158,0,0,0,
,-1.086,-0.316,0.302,-590.638,396.667,296.692,0,0,0,
,-0.828,-0.222,0.47,-185.669,510.803,112.487,0,0,0,
,-0.509,-0.097,0.633,266.174,595.581,-20.386,0,0,0,
,-0.163,0.011,1.083,733.581,624.389,-209.229,0,0,0,
,0.133,0.096,1.531,978.271,584.716,-357.3,0,0,0,
,0.487,0.271,1.806,911.865,463.989,-440.003,0,0,0,
,0.666,0.44,1.883,756.897,239.868,-420.227,0,0,0,
,0.445,0.452,1.743,599.853,-62.012,-373.719,0,0,0,
,-0.157,0.279,1.511,305.786,-272.583,-299.805,0,0,0,
,-0.687,0.38,1.18,-65.491,-336.731,-158.081,0,0,0,
,-0.97,0.58,0.865,-308.289,-359.925,-41.748,0,0,0,
,-1.219,0.639,0.543,-301.575,-337.525,119.018,0,0,0,
,-1.339,0.404,0.283,-250.55,-270.569,252.563,0,0,0,
,-1.354,0.075,0.077,-312.745,-203.675,373.535,0,0,0,
,-1.364,-0.205,-0.055,-468.567,-137.757,440.857,0,0,0,
,-1.381,-0.363,-0.065,-604.493,-62.745,485.595,0,0,0,
,-1.332,-0.447,-0.134,-697.327,33.874,484.619,0,0,0,
,-1.258,-0.419,-0.016,-647.767,115.6,415.344,0,0,0,
,-1.21,-0.369,0.14,-284.913,212.707,282.714,0,0,0,
,-1,-0.55,0.433,58.105,432.556,-4.822,0,0,0,
,-0.546,-0.434,0.65,62.255,496.887,-92.469,0,0,0,
,-0.464,-0.348,0.941,255.005,444.702,-355.53,0,0,0,
,-0.39,-0.287,1.348,363.769,452.697,-507.203,0,0,0,
,-0.063,0.036,1.61,310.852,376.22,-541.687,0,0,0,
,0.137,0.414,1.74,352.783,186.157,-573.609,0,0,0,
,0.229,0.6,1.669,488.586,15.075,-539.246,0,0,0,
,0.155,0.581,1.439,531.555,-150.696,-455.384,0,0,0,
,-0.151,0.476,1.122,401.672,-292.481,-385.254,0,0,0,
,-0.523,0.477,0.911,159.24,-360.779,-305.664,0,0,0,
,-0.728,0.497,0.624,-144.593,-335.45,-239.38,0,0,0,
,-0.833,0.626,0.2,-416.993,-319.031,-145.63,0,0,0,
,-1.034,0.802,-0.083,-568.848,-308.899,-61.829,0,0,0,
,-1.171,0.705,-0.199,-459.778,-154.908,75.744,0,0,0,
,-1.197,0.339,-0.211,-392.334,-5.677,150.146,0,0,0,
,-1.281,-0.096,-0.062,-543.519,124.878,252.563,0,0,0,
,-1.373,-0.385,0.039,-862.244,266.906,298.401,0,0,0,
,-1.27,-0.379,0.206,-1199.097,390.319,331.237,0,0,0,
,-1.06,-0.077,0.505,-1304.017,465.942,298.523,0,0,0,
,-0.815,0.305,0.876,-932.007,491.943,301.391,0,0,0,
,-0.545,0.658,1.145,-129.578,388.916,219.116,0,0,0,
,-0.332,0.538,1.821,1119.262,276.977,-56.031,0,0,0,
,-0.562,-1.219,1.507,1590.149,353.271,-567.749,0,0,0,
,-0.054,-1.09,1.382,175.964,105.102,-495.911,0,0,0,
,0.241,0.038,1.245,-462.281,-126.099,-499.939,0,0,0,
,0.058,0.753,1.209,79.284,-197.327,-501.099,0,0,0,
,-0.11,0.587,1.099,631.836,-85.816,-550.415,0,0,0,
,-0.113,0.473,1.161,748.169,-110.535,-450.318,0,0,0,
,-0.304,0.521,1.096,569.152,-260.498,-390.686,0,0,0,
,-0.673,0.593,0.942,320.617,-371.766,-299.927,0,0,0,
,-0.97,0.643,0.66,61.889,-413.147,-226.075,0,0,0,
,-1.151,0.716,0.348,-85.206,-409.79,-62.928,0,0,0,
,-1.26,0.692,0.068,-231.324,-362.488,85.937,0,0,0,
,-1.352,0.486,-0.145,-321.595,-278.687,277.282,0,0,0,
,-1.397,0.304,-0.208,-345.032,-151.368,426.757,0,0,0,
,-1.386,0.014,-0.117,-304.566,-9.156,521.118,0,0,0,
,-1.334,-0.258,0.019,-268.25,123.84,525.451,0,0,0,
,-1.174,-0.408,0.173,-229.737,264.16,473.816,0,0,0,
,-0.966,-0.369,0.383,-90.76,379.577,361.877,0,0,0,
,-0.726,-0.22,0.621,254.821,500.671,263.488,0,0,0,
,-0.486,-0.093,0.945,724.426,582.641,140.503,0,0,0,
,-0.259,-0.295,1.24,1156.189,649.719,-56.519,0,0,0,
,0.023,-0.303,1.667,1100.097,591.613,-140.87,0,0,0,
,0.318,-0.11,1.879,876.403,410.949,-220.765,0,0,0,
,0.461,0.064,1.783,689.27,151.489,-282.898,0,0,0,
,0.527,-0.003,2.07,484.924,-141.297,-305.726,0,0,0,
,-0.183,-0.108,1.301,-458.619,-442.017,-245.118,0,0,0,
,-0.672,0.949,0.696,-1165.833,-556.397,131.591,0,0,0,
,-0.903,1.266,0.354,-419.556,-393.616,49.56,0,0,0,
,-1.021,0.628,0.219,216.308,-250.184,77.148,0,0,0,
,-1.076,0.197,-0.026,-87.464,-222.535,178.283,0,0,0,
,-1.186,0.228,-0.103,-449.707,-207.215,288.086,0,0,0,
,-1.227,0.191,-0.042,-454.712,-87.159,410.217,0,0,0,
,-1.218,-0.064,0.088,-296.021,-20.264,464.538,0,0,0,
,-1.215,-0.463,0.285,-251.77,48.217,429.565,0,0,0,
,-1.143,-0.649,0.469,-372.315,85.083,382.324,0,0,0,
,-1.096,-0.707,0.672,-473.694,115.112,256.897,0,0,0,
,-0.994,-0.638,0.817,-568.177,143.127,126.098,0,0,0,
,-0.813,-0.39,0.89,-574.341,158.935,10.681,0,0,0,
,-0.598,-0.06,0.954,-300.415,185.852,-115.174,0,0,0,
,-0.412,0.026,1.048,226.135,232.727,-308.167,0,0,0,
,-0.242,-0.104,1.123,561.401,258.056,-456.116,0,0,0,
,-0.104,-0.011,1.212,557.312,227.417,-486.756,0,0,0,
,0.049,0.27,1.248,512.146,154.724,-452.576,0,0,0,
,0.041,0.458,1.323,694.702,58.105,-420.289,0,0,0,
,-0.098,0.31,1.289,796.814,-15.931,-389.893,0,0,0,
,-0.287,0.198,1.184,568.115,-107.483,-315.247,0,0,0,
,-0.555,0.285,1.064,125.61,-206.055,-207.764,0,0,0,
,-0.798,0.555,0.839,-248.597,-261.048,-97.352,0,0,0,
,-1.004,0.718,0.518,-472.352,-290.711,92.529,0,0,0,
,-1.101,0.866,0.213,-500.489,-242.127,299.682,0,0,0,
,-1.085,0.603,0.062,-290.955,-169.007,450.744,0,0,0,
,-1.096,0.07,0.042,-155.701,-63.538,535.4,0,0,0,
,-1.071,-0.468,0.06,-341.431,16.54,578.613,0,0,0,
,-1.101,-0.749,0.161,-560.975,23.559,509.155,0,0,0,
,-1.154,-0.827,0.317,-739.747,22.888,340.454,0,0,0,
,-1.088,-0.601,0.452,-777.344,65.612,196.838,0,0,0,
,-0.966,-0.365,0.619,-486.573,117.187,33.081,0,0,0,
,-0.735,-0.242,0.829,-32.166,226.074,-123.78,0,0,0,
,-0.524,-0.389,0.993,345.276,290.588,-336.426,0,0,0,
,-0.348,-0.501,1.104,284.851,292.114,-526.246,0,0,0,
,-0.114,-0.243,1.204,78.125,248.901,-612.488,0,0,0,
,0.059,0.213,1.363,44.433,176.513,-621.949,0,0,0,
,0.178,0.566,1.516,193.054,81.42,-625.611,0,0,0,
,0.188,0.63,1.522,326.965,-40.039,-591.431,0,0,0,
,0.023,0.639,1.319,254.943,-214.112,-490.601,0,0,0,
,-0.316,0.72,1.015,85.327,-354.004,-364.441,0,0,0,
,-0.705,0.782,0.771,-62.806,-395.02,-275.269,0,0,0,
,-0.981,0.787,0.486,-142.64,-344.178,-109.131,0,0,0,
,-1.056,0.67,0.255,-219.666,-252.93,72.998,0,0,0,
,-1.155,0.451,0.158,-336.487,-189.881,280.395,0,0,0,
,-1.222,0.206,0.12,-481.263,-95.032,464.599,0,0,0,
,-1.265,0.043,0.11,-656.128,0.976,611.206,0,0,0,
,-1.287,-0.176,0.143,-719.178,102.783,690.124,0,0,0,
,-1.265,-0.345,0.338,-767.151,167.907,702.209,0,0,0,
,-1.2,-0.421,0.513,-678.467,210.388,651.428,0,0,0,
,-1.033,-0.359,0.589,-444.336,206.726,498.901,0,0,0,
,-0.99,-0.306,0.748,237.854,234.619,309.082,0,0,0,
,-0.801,-0.967,0.971,636.901,393.432,-206.116,0,0,0,
,-0.267,-0.769,0.978,92.651,339.05,-149.292,0,0,0,
,-0.203,-0.28,1.026,-34.729,201.782,-394.288,0,0,0,
,-0.161,0.032,1.138,171.997,261.047,-565.613,0,0,0,
,0.117,0.289,1.182,433.715,309.021,-605.164,0,0,0,
,0.254,0.453,1.346,620.727,213.745,-647.706,0,0,0,
,0.271,0.595,1.461,622.924,48.278,-624.573,0,0,0,
,0.084,0.661,1.399,520.996,-155.701,-565.491,0,0,0,
,-0.276,0.708,1.221,269.531,-335.938,-510.987,0,0,0,
,-0.588,0.798,0.932,8.361,-432.19,-383.057,0,0,0,
,-0.921,0.862,0.597,-183.35,-485.535,-252.991,0,0,0,
,-1.134,0.808,0.304,-273.072,-433.167,-33.753,0,0,0,
,-1.23,0.734,0.045,-277.527,-346.436,174.682,0,0,0,
,-1.301,0.361,-0.007,-199.585,-189.698,396.484,0,0,0,
,-1.301,-0.131,0.016,-293.03,-37.293,540.527,0,0,0,
,-1.303,-0.446,0.073,-520.997,84.472,628.967,0,0,0,
,-1.272,-0.566,0.235,-718.873,144.653,615.844,0,0,0,
,-1.23,-0.491,0.443,-708.435,160.522,533.081,0,0,0,
,-1.104,-0.41,0.624,-533.875,186.645,360.962,0,0,0,
,-0.925,-0.292,0.767,-185.059,206.482,206.787,0,0,0,
,-0.665,-0.269,0.914,205.505,249.45,-10.987,0,0,0,
,-0.429,-0.354,1.028,418.09,275.879,-263.001,0,0,0,
,-0.166,-0.303,1.102,354.858,268.005,-446.351,0,0,0,
,0.068,0.043,1.218,273.681,217.895,-507.874,0,0,0,
,0.182,0.368,1.309,340.637,137.573,-508.851,0,0,0,
,0.157,0.573,1.36,449.707,12.451,-570.252,0,0,0,
,0.041,0.569,1.347,486.511,-100.342,-541.077,0,0,0,
,-0.189,0.593,1.181,361.145,-204.163,-430.726,0,0,0,
,-0.453,0.659,0.975,170.349,-294.739,-339.173,0,0,0,
,-0.751,0.744,0.745,20.568,-337.281,-219.483,0,0,0,
,-1.003,0.772,0.487,-121.949,-322.388,-66.59,0,0,0,
,-1.147,0.727,0.259,-231.873,-275.879,107.849,0,0,0,
,-1.219,0.556,0.139,-238.587,-185.364,309.57,0,0,0,
,-1.227,0.26,0.075,-278.626,-93.323,460.266,0,0,0,
,-1.24,-0.018,0.112,-356.324,-8.301,578.552,0,0,0,
,-1.235,-0.302,0.202,-476.502,79.345,619.445,0,0,0,
,-1.199,-0.442,0.252,-628.846,141.784,620.483,0,0,0,
,-1.166,-0.397,0.345,-687.317,175.232,562.439,0,0,0,
,-1.093,-0.293,0.512,-508.606,207.702,416.992,0,0,0,
,-0.917,-0.23,0.668,-109.864,263.672,275.695,0,0,0,
,-0.72,-0.313,0.87,285.583,296.753,57.434,0,0,0,
,-0.528,-0.461,1.014,517.639,312.317,-172.425,0,0,0,
,-0.342,-0.414,1.119,478.149,308.593,-364.685,0,0,0,
,-0.155,-0.115,1.179,418.09,299.804,-467.652,0,0,0,
,0.018,0.15,1.261,548.462,290.1,-551.331,0,0,0,
,0.21,0.347,1.385,652.588,225.341,-564.515,0,0,0,
,0.286,0.452,1.41,711.303,68.054,-554.444,0,0,0,
,0.156,0.303,1.306,688.537,-119.507,-502.991,0,0,0,
,-0.192,0.187,1.164,435.18,-236.084,-435.608,0,0,0,
,-0.555,0.249,0.997,45.837,-310.791,-354.798,0,0,0,
,-0.881,0.495,0.77,-330.628,-348.206,-246.644,0,0,0,
,-1.139,0.702,0.498,-515.87,-332.825,-81.238,0,0,0,
,-1.256,0.819,0.276,-471.985,-287.72,133.85,0,0,0,
,-1.29,0.625,0.121,-223.328,-211.06,297.607,0,0,0,
,-1.288,0.116,0.104,-150.147,-139.039,412.963,0,0,0,
,-1.28,-0.288,0.13,-300.782,-61.463,525.268,0,0,0,
,-1.226,-0.539,0.162,-558.777,17.273,525.695,0,0,0,
,-1.196,-0.636,0.244,-722.107,57.678,455.383,0,0,0,
,-1.152,-0.556,0.378,-780.518,84.35,358.947,0,0,0,
,-1.046,-0.301,0.489,-610.901,124.755,217.041,0,0,0,
,-0.825,-0.148,0.646,-137.33,177.734,47.729,0,0,0,
,-0.583,-0.194,0.855,403.32,223.083,-159.302,0,0,0,
,-0.488,-0.525,1.015,658.813,242.859,-436.402,0,0,0,
,-0.286,-0.441,1.138,410.217,261.596,-508.179,0,0,0,
,-0.048,0.061,1.335,288.696,181.762,-578.98,0,0,0,
,0.062,0.447,1.534,410.156,41.259,-580.079,0,0,0,
,0.066,0.534,1.555,594.299,-85.389,-566.468,0,0,0,
,-0.042,0.379,1.405,559.753,-202.698,-514.039,0,0,0,
,-0.323,0.206,1.226,263.366,-315.796,-462.098,0,0,0,
,-0.572,0.232,1.002,-135.804,-350.831,-378.54,0,0,0,
,-0.749,0.381,0.69,-523.987,-359.62,-290.162,0,0,0,
,-0.966,0.6,0.298,-783.387,-357.972,-142.64,0,0,0,
,-1.065,0.763,0.022,-824.219,-271.851,25.085,0,0,0,
,-1.12,0.795,-0.153,-595.337,-132.996,192.505,0,0,0,
,-1.153,0.569,-0.176,-351.319,1.22,314.453,0,0,0,
,-1.154,0.298,-0.11,-242.066,146.362,458.191,0,0,0,
,-1.119,-0.016,0.039,-246.399,240.6,530.944,0,0,0,
,-1.104,-0.197,0.255,-239.197,293.457,545.105,0,0,0,
,-1.055,-0.415,0.512,-163.208,305.297,443.42,0,0,0,
,-0.978,-0.509,0.706,-91.004,294.372,290.71,0,0,0,
,-0.808,-0.469,0.879,20.629,260.986,87.28,0,0,0,
,-0.67,-0.405,1.021,216.919,222.107,-143.555,0,0,0,
,-0.523,-0.395,1.192,390.136,212.219,-358.887,0,0,0,
,-0.335,-0.26,1.315,408.203,197.326,-501.526,0,0,0,
,-0.132,0.071,1.379,386.169,126.403,-551.27,0,0,0,
,0,0.443,1.406,500.671,30.944,-538.514,0,0,0,
,0.008,0.536,1.317,743.469,-51.148,-487.793,0,0,0,
,-0.102,0.384,1.232,862.243,-122.925,-432.435,0,0,0,
,-0.306,0.179,1.058,695.984,-152.955,-372.254,0,0,0,
,-0.505,0.175,0.935,287.597,-163.208,-285.279,0,0,0,
,-0.724,0.299,0.838,-220.337,-204.163,-197.022,0,0,0,
,-1.037,0.383,0.504,-844.483,-225.647,-103.821,0,0,0,
,-1.123,1.011,0.079,-1287.781,-231.446,177.612,0,0,0,
,-1.154,1.325,-0.142,-862.305,-153.321,325.5,0,0,0,
,-1.151,0.822,-0.105,-21.241,0,428.772,0,0,0,
,-1.134,0.057,0.035,143.737,93.566,532.959,0,0,0,
,-1.104,-0.478,0.211,-153.443,160.461,604.37,0,0,0,
,-1.102,-0.708,0.345,-455.994,171.936,566.711,0,0,0,
,-1.105,-0.748,0.465,-705.506,170.227,454.406,0,0,0,
,-1.025,-0.533,0.572,-712.525,170.044,278.869,0,0,0,
,-0.903,-0.305,0.724,-430.97,166.687,80.688,0,0,0,
,-0.719,-0.146,0.909,45.715,178.283,-104.126,0,0,0,
,-0.51,-0.162,1.175,447.021,155.029,-302.247,0,0,0,
,-0.404,-0.201,1.317,563.537,132.568,-458.008,0,0,0,
,-0.171,0.124,1.347,450.927,50.048,-512.513,0,0,0,
,-0.044,0.459,1.345,560.669,-45.105,-533.814,0,0,0,
,-0.011,0.522,1.31,807.8,-126.221,-507.63,0,0,0,
,-0.098,0.293,1.21,874.939,-176.514,-484.436,0,0,0,
,-0.263,0.078,1.041,654.235,-183.045,-447.205,0,0,0,
,-0.481,0.117,0.912,229.37,-197.083,-348.511,0,0,0,
,-0.699,0.342,0.707,-243.47,-189.759,-262.085,0,0,0,
,-0.948,0.592,0.385,-593.262,-170.838,-102.967,0,0,0,
,-1.121,0.837,0.188,-783.57,-125.916,59.57,0,0,0,
,-1.156,1.025,0.026,-552.552,-38.025,233.703,0,0,0,
,-1.134,0.69,-0.009,-187.134,21.057,355.102,0,0,0,
,-1.113,0.21,0.077,-43.274,70.922,469.604,0,0,0,
,-1.098,-0.256,0.198,-158.57,104.675,515.136,0,0,0,
,-1.13,-0.531,0.341,-350.159,143.921,485.412,0,0,0,
,-1.119,-0.653,0.46,-523.255,156.189,382.141,0,0,0,
,-1.058,-0.596,0.553,-576.111,158.813,207.641,0,0,0,
,-0.929,-0.363,0.693,-417.054,140.808,51.757,0,0,0,
,-0.789,-0.15,0.889,-14.283,145.507,-99.793,0,0,0,
,-0.628,-0.153,1.031,444.641,180.42,-277.894,0,0,0,
,-0.48,-0.336,1.127,676.635,209.655,-470.704,0,0,0,
,-0.243,-0.113,1.255,570.8,192.81,-521.241,0,0,0,
,-0.045,0.239,1.302,604.431,143.188,-557.984,0,0,0,
,0.034,0.455,1.419,752.258,69.03,-525.33,0,0,0,
,0.045,0.364,1.361,795.715,-2.442,-496.46,0,0,0,
,-0.137,0.267,1.193,563.232,-102.539,-403.199,0,0,0,
,-0.405,0.265,1.02,129.638,-164.734,-323.548,0,0,0,
,-0.714,0.322,0.815,-385.132,-197.205,-230.469,0,0,0,
,-0.948,0.588,0.497,-958.252,-213.623,-53.406,0,0,0,
,-1.028,1.11,0.154,-1067.688,-168.152,149.17,0,0,0,
,-1.045,1.091,0.033,-510.682,-83.497,275.329,0,0,0,
,-1.065,0.557,0.006,-48.706,34.362,353.942,0,0,0,
,-1.051,0.011,0.063,-144.898,89.538,433.166,0,0,0,
,-1.05,-0.393,0.183,-360.047,142.395,424.377,0,0,0,
,-1.09,-0.593,0.301,-632.569,198.608,345.581,0,0,0,
,-1.089,-0.571,0.438,-819.581,243.652,210.815,0,0,0,
,-1.018,-0.418,0.571,-803.833,232.605,91.369,0,0,0,
,-0.896,-0.112,0.729,-522.278,194.213,-63.355,0,0,0,
,-0.772,-0.013,0.931,-36.56,164.856,-219.849,0,0,0,
,-0.641,-0.12,1.159,381.042,152.038,-380.738,0,0,0,
,-0.474,-0.171,1.284,451.049,130.737,-518.616,0,0,0,
,-0.228,0.14,1.321,386.047,61.462,-577.271,0,0,0,
,-0.075,0.496,1.336,494.69,-5.494,-562.073,0,0,0,
,0.006,0.653,1.384,700.866,-89.051,-512.879,0,0,0,
,-0.073,0.577,1.272,824.279,-163.575,-426.819,0,0,0,
,-0.264,0.353,1.098,752.38,-213.013,-371.155,0,0,0,
,-0.456,0.277,0.937,409.729,-239.991,-266.358,0,0,0,
,-0.671,0.322,0.789,-14.832,-262.574,-163.208,0,0,0,
,-0.914,0.423,0.51,-473.694,-240.113,-20.447,0,0,0,
,-1.042,0.662,0.176,-744.263,-196.839,152.099,0,0,0,
,-1.129,0.895,0.031,-610.474,-123.23,321.96,0,0,0,
,-1.197,0.621,0.013,-281.495,-0.916,445.068,0,0,0,
,-1.19,0.209,0.081,-188.965,93.505,563.232,0,0,0,
,-1.13,-0.196,0.194,-330.14,179.077,622.07,0,0,0,
,-1.11,-0.39,0.287,-465.577,252.563,601.928,0,0,0,
,-1.057,-0.49,0.494,-504.761,290.283,490.783,0,0,0,
,-0.996,-0.436,0.683,-475.098,271.118,328.491,0,0,0,
,-0.862,-0.329,0.778,-267.334,248.718,138.672,0,0,0,
,-0.678,-0.146,0.927,88.073,213.989,-40.711,0,0,0,
,-0.55,-0.257,1.067,512.756,192.688,-289.673,0,0,0,
,-0.402,-0.339,1.098,517.639,184.692,-445.862,0,0,0,
,-0.187,0.002,1.156,396.484,129.211,-519.654,0,0,0,
,-0.044,0.394,1.254,487.854,67.26,-541.199,0,0,0,
,0.03,0.526,1.324,659.362,11.718,-522.95,0,0,0,
,0.04,0.487,1.281,653.808,-59.815,-452.271,0,0,0,
,-0.11,0.453,1.163,426.88,-144.288,-370.362,0,0,0,
,-0.402,0.456,0.997,72.57,-204.468,-252.503,0,0,0,
,-0.653,0.505,0.806,-268.25,-219.422,-145.691,0,0,0,
,-0.862,0.704,0.521,-596.619,-182.496,16.113,0,0,0,
,-0.973,0.963,0.266,-623.169,-135.071,170.593,0,0,0,
,-1.069,0.877,0.23,-272.644,-45.35,287.658,0,0,0,
,-1.064,0.441,0.229,-20.325,37.414,407.104,0,0,0,
,-1.038,0.027,0.262,-97.962,81.298,485.351,0,0,0,
,-1.047,-0.241,0.333,-325.745,111.816,515.136,0,0,0,
,-1.041,-0.364,0.373,-518.067,157.348,488.769,0,0,0,
,-1.006,-0.415,0.454,-604.004,171.081,389.343,0,0,0,
,-0.976,-0.4,0.574,-610.291,170.166,255.127,0,0,0,
,-0.894,-0.302,0.667,-511.902,153.198,111.694,0,0,0,
,-0.791,-0.135,0.791,-255.372,107.91,-39.612,0,0,0,
,-0.676,-0.095,0.96,151.55,73.303,-204.346,0,0,0,
,-0.557,-0.232,1.049,417.541,54.992,-412.293,0,0,0,
,-0.427,-0.253,1.072,397.888,27.71,-539.795,0,0,0,
,-0.252,0.093,1.101,301.635,-13.062,-590.332,0,0,0,
,-0.153,0.422,1.134,437.866,-42.115,-601.319,0,0,0,
,-0.11,0.489,1.172,640.747,-61.158,-573.975,0,0,0,
,-0.16,0.395,1.15,668.396,-74.891,-479.493,0,0,0,
,-0.313,0.344,1.068,434.936,-104.554,-387.33,0,0,0,
,-0.545,0.361,0.914,90.148,-138.062,-262.146,0,0,0,
,-0.73,0.468,0.778,-254.09,-161.499,-166.993,0,0,0,
,-0.93,0.559,0.502,-583.069,-146.119,-50.232,0,0,0,
,-1.042,0.859,0.288,-788.941,-160.889,78.125,0,0,0,
,-1.121,0.985,0.148,-619.202,-132.081,228.393,0,0,0,
,-1.128,0.624,0.16,-302.124,-48.34,316.894,0,0,0,
,-1.085,0.176,0.194,-239.441,10.62,415.405,0,0,0,
,-1.067,-0.208,0.302,-435.608,54.748,471.618,0,0,0,
,-1.072,-0.409,0.396,-583.741,112.793,460.388,0,0,0,
,-1.045,-0.415,0.492,-678.65,141.662,380.127,0,0,0,
,-0.967,-0.266,0.634,-536.56,168.396,238.952,0,0,0,
,-0.826,-0.097,0.731,-120.85,202.148,111.694,0,0,0,
,-0.656,-0.159,0.945,381.775,225.341,-94.666,0,0,0,
,-0.542,-0.401,1.125,678.405,244.995,-310.486,0,0,0,
,-0.317,-0.348,1.19,507.812,215.026,-458.313,0,0,0,
,-0.102,0.07,1.268,413.513,148.132,-526.185,0,0,0,
,0.013,0.456,1.356,538.452,78.491,-526.612,0,0,0,
,0.061,0.586,1.369,682.8,22.094,-493.958,0,0,0,
,-0.017,0.562,1.299,673.706,-63.233,-426.819,0,0,0,
,-0.245,0.484,1.121,487.548,-137.207,-337.098,0,0,0,
,-0.485,0.467,0.957,184.387,-166.138,-247.925,0,0,0,
,-0.662,0.505,0.723,-176.88,-166.382,-135.071,0,0,0,
,-0.791,0.629,0.432,-480.652,-150.696,-8.484,0,0,0,
,-0.944,0.814,0.23,-642.823,-118.409,128.479,0,0,0,
,-1.061,0.826,0.156,-491.456,-1.77,244.018,0,0,0,
,-1.07,0.586,0.199,-269.898,115.661,370.788,0,0,0,
,-1.062,0.27,0.246,-248.963,209.167,468.017,0,0,0,
,-1.033,-0.002,0.349,-337.769,259.277,521.789,0,0,0,
,-1.031,-0.226,0.489,-397.828,311.706,535.217,0,0,0,
,-0.996,-0.421,0.592,-467.957,318.359,449.463,0,0,0,
,-0.933,-0.463,0.664,-501.831,275.573,345.031,0,0,0,
,-0.855,-0.361,0.766,-433.472,214.904,173.034,0,0,0,
,-0.774,-0.181,0.858,-167.725,170.715,7.324,0,0,0,
,-0.627,-0.14,0.917,219.055,169.983,-183.472,0,0,0,
,-0.497,-0.204,0.959,471.435,166.931,-360.23,0,0,0,
,-0.348,-0.206,0.988,516.906,164.856,-511.719,0,0,0,
,-0.137,0.088,1.042,430.053,136.352,-578.858,0,0,0,
,-0.008,0.488,1.19,466.674,78.064,-585.694,0,0,0,
,0.074,0.736,1.286,630.249,25.268,-548.645,0,0,0,
,0.066,0.729,1.248,702.453,-30.945,-488.404,0,0,0,
,-0.09,0.588,1.139,531.005,-123.23,-393.433,0,0,0,
,-0.365,0.483,1.003,160.156,-205.384,-267.151,0,0,0,
,-0.686,0.531,0.85,-295.105,-268.006,-143.921,0,0,0,
,-0.956,0.617,0.538,-615.784,-244.69,-14.832,0,0,0,
,-1.069,0.887,0.27,-693.604,-195.313,159.362,0,0,0,
,-1.13,0.848,0.172,-370.728,-100.22,281.921,0,0,0,
,-1.184,0.447,0.182,-12.757,5.065,401.733,0,0,0,
,-1.162,-0.029,0.245,31.494,76.355,468.261,0,0,0,
,-1.133,-0.422,0.389,-150.757,96.618,483.886,0,0,0,
,-1.12,-0.598,0.46,-421.387,93.017,441.711,0,0,0,
,-1.072,-0.517,0.522,-586.609,58.593,307.983,0,0,0,
,-0.949,-0.401,0.602,-512.818,77.697,158.63,0,0,0,
,-0.764,-0.256,0.662,-242.615,117.065,-17.945,0,0,0,
,-0.537,-0.096,0.783,72.876,149.109,-192.078,0,0,0,
,-0.34,-0.103,0.987,415.954,172.912,-400.513,0,0,0,
,-0.168,-0.04,1.188,490.661,168.884,-509.034,0,0,0,
,0.025,0.266,1.364,418.762,106.933,-561.89,0,0,0,
,0.184,0.624,1.455,482.238,6.408,-521.485,0,0,0,
,0.17,0.663,1.398,577.819,-76.783,-472.229,0,0,0,
,-0.085,0.42,1.315,461.547,-187.439,-410.584,0,0,0,
,-0.396,0.259,1.185,102.356,-238.526,-310.486,0,0,0,
,-0.616,0.393,0.952,-321.106,-260.682,-192.749,0,0,0,
,-0.795,0.587,0.645,-569.519,-242.188,-60.914,0,0,0,
,-0.934,0.789,0.405,-567.505,-185.608,91.552,0,0,0,
,-1.089,0.828,0.284,-379.639,-121.888,195.068,0,0,0,
,-1.134,0.546,0.189,-120.118,-8.912,301.757,0,0,0,
,-1.085,0.256,0.178,-92.408,54.138,393.188,0,0,0,
,-1.088,-0.015,0.26,-208.13,70.617,433.166,0,0,0,
,-1.087,-0.197,0.328,-308.716,105.163,437.072,0,0,0,
,-1.065,-0.259,0.333,-392.334,111.572,391.54,0,0,0,
,-1.012,-0.225,0.424,-397.644,115.234,301.88,0,0,0,
,-0.918,-0.148,0.552,-224.427,135.62,223.816,0,0,0,
,-0.79,-0.185,0.696,41.992,175.842,90.026,0,0,0,
,-0.646,-0.237,0.79,238.952,193.176,-70.069,0,0,0,
,-0.485,-0.261,0.93,327.026,209.838,-241.456,0,0,0,
,-0.336,-0.126,1.065,311.645,198.242,-366.883,0,0,0,
,-0.174,0.166,1.26,335.388,157.409,-460.267,0,0,0,
,-0.024,0.407,1.4,445.495,98.571,-502.503,0,0,0,
,0.095,0.558,1.435,539.367,1.648,-489.197,0,0,0,
,0.076,0.596,1.373,562.317,-109.436,-410.401,0,0,0,
,-0.394,0.361,1.08,389.099,-257.081,-288.147,0,0,0,
,-0.577,0.327,0.895,94.238,-289.673,-209.656,0,0,0,
,-0.771,0.533,0.669,-136.109,-316.346,-118.409,0,0,0,
,-0.957,0.634,0.495,-191.04,-304.322,-58.838,0,0,0,
,-1.048,0.603,0.307,-130.433,-266.358,32.043,0,0,0,
,-1.203,-0.025,0.28,-175.843,-167.786,280.761,0,0,0,
,-1.173,-0.211,0.34,-340.027,-90.821,356.018,0,0,0,
,-1.132,-0.361,0.352,-506.226,7.019,361.145,0,0,0,
,-1.033,-0.303,0.362,-671.692,85.449,348.999,0,0,0,
,-0.956,-0.175,0.411,-672.73,173.767,275.634,0,0,0,
,-0.862,-0.079,0.558,-493.897,248.657,189.026,0,0,0,
,-0.727,-0.026,0.721,-221.192,309.875,95.336,0,0,0,
,-0.572,-0.018,0.852,44.189,322.082,-29.358,0,0,0,
,-0.449,-0.064,0.981,234.863,311.584,-186.097,0,0,0,
,-0.324,-0.069,1.06,329.651,285.888,-299.256,0,0,0,
,-0.127,0.109,1.194,371.826,242.37,-411.499,0,0,0,
,0.002,0.316,1.271,467.224,164.55,-462.159,0,0,0,
,0.016,0.444,1.323,545.532,40.832,-479.004,0,0,0,
,-0.06,0.5,1.293,538.147,-54.932,-444.275,0,0,0,
,-0.214,0.574,1.198,445.984,-161.377,-374.024,0,0,0,
,-0.429,0.59,1.017,316.894,-223.816,-294.922,0,0,0,
,-0.684,0.665,0.835,90.759,-276.795,-188.599,0,0,0,
,-0.924,0.754,0.58,-60.181,-279.969,-62.5,0,0,0,
,-1.02,0.765,0.326,-153.077,-238.587,91.491,0,0,0,
,-1.087,0.735,0.155,-114.258,-172.669,269.592,0,0,0,
,-1.107,0.499,0.118,-17.945,-83.069,414.978,0,0,0,
,-1.098,0.066,0.2,-6.653,-2.625,502.929,0,0,0,
,-1.095,-0.294,0.305,-166.993,42.175,540.466,0,0,0,
,-1.089,-0.513,0.377,-388.001,45.959,501.037,0,0,0,
,-1.097,-0.557,0.465,-493.103,46.875,392.028,0,0,0,
,-1.021,-0.491,0.6,-459.534,76.294,253.662,0,0,0,
,-0.853,-0.314,0.721,-261.963,96.74,99.975,0,0,0,
,-0.676,-0.239,0.845,46.936,142.822,-89.112,0,0,0,
,-0.481,-0.247,0.966,324.707,203.43,-259.949,0,0,0,
,-0.261,-0.243,1.105,389.038,228.149,-429.688,0,0,0,
,-0.061,-0.013,1.225,321.045,186.401,-528.992,0,0,0,
,0.072,0.288,1.367,358.947,112.487,-539.124,0,0,0,
,0.094,0.477,1.459,414.306,36.987,-493.164,0,0,0,
,-0.001,0.489,1.361,389.038,-46.326,-418.763,0,0,0,
,-0.221,0.423,1.199,240.234,-120.545,-312.195,0,0,0,
,-0.503,0.46,1.018,-40.467,-175.599,-210.755,0,0,0,
,-0.75,0.614,0.808,-311.341,-198.609,-77.698,0,0,0,
,-0.928,0.721,0.552,-467.713,-181.763,67.321,0,0,0,
,-1.066,0.777,0.319,-466.614,-140.503,220.214,0,0,0,
,-1.122,0.682,0.127,-305.42,-59.937,372.314,0,0,0,
,-1.154,0.339,0.114,-166.932,35.522,485.29,0,0,0,
,-1.146,0.011,0.166,-208.313,105.468,598.205,0,0,0,
,-1.114,-0.328,0.261,-312.561,149.109,626.526,0,0,0,
,-1.148,-0.516,0.362,-404.786,180.175,590.942,0,0,0,
,-1.108,-0.509,0.429,-407.288,167.785,483.032,0,0,0,
,-1.004,-0.407,0.501,-237.549,175.72,310.485,0,0,0,
,-0.826,-0.409,0.667,128.601,242.859,140.38,0,0,0,
,-0.635,-0.493,0.814,414.795,301.147,-70.984,0,0,0,
,-0.473,-0.605,0.932,468.994,330.81,-312.623,0,0,0,
,-0.325,-0.482,1.069,292.053,322.631,-481.08,0,0,0,
,-0.118,-0.022,1.249,172.729,273.071,-571.289,0,0,0,
,0.034,0.419,1.503,326.233,188.11,-629.212,0,0,0,
,0.187,0.598,1.58,539.123,82.275,-610.718,0,0,0,
,0.182,0.537,1.454,588.867,-73.609,-550.354,0,0,0,
,-0.087,0.451,1.302,440.796,-202.698,-471.558,0,0,0,
,-0.438,0.367,1.131,206.787,-261.536,-388.184,0,0,0,
,-0.662,0.395,0.964,-167.847,-289.429,-281.739,0,0,0,
,-0.835,0.443,0.647,-641.175,-320.923,-174.195,0,0,0,
,-0.938,0.704,0.281,-958.924,-343.567,-1.709,0,0,0,
,-1.027,0.931,0.12,-780.274,-296.875,127.014,0,0,0,
,-1.095,0.67,0.046,-321.717,-178.101,228.637,0,0,0,
,-1.105,0.179,0.089,-166.26,-85.572,332.336,0,0,0,
,-1.127,-0.165,0.161,-388.428,-10.193,410.583,0,0,0,
,-1.103,-0.346,0.235,-566.773,72.876,457.336,0,0,0,
,-1.114,-0.443,0.331,-679.688,151.611,403.381,0,0,0,
,-1.059,-0.445,0.459,-702.637,210.571,305.297,0,0,0,
,-0.936,-0.375,0.598,-617.127,267.456,184.814,0,0,0,
,-0.744,-0.205,0.763,-409.119,296.508,16.784,0,0,0,
,-0.565,-0.062,0.969,-41.565,288.696,-145.691,0,0,0,
,-0.396,-0.013,1.165,299.316,257.69,-319.092,0,0,0,
,-0.256,-0.019,1.294,438.964,205.688,-467.041,0,0,0,
,-0.056,0.224,1.394,403.137,111.328,-507.019,0,0,0,
,0.095,0.59,1.397,441.284,-5.494,-496.46,0,0,0,
,0.09,0.768,1.354,588.195,-108.643,-460.999,0,0,0,
,-0.094,0.656,1.239,656.372,-200.379,-393.555,0,0,0,
,-0.331,0.489,1.064,505.371,-242.981,-325.501,0,0,0,
,-0.556,0.428,0.889,153.076,-294.922,-235.718,0,0,0,
,-0.801,0.468,0.652,-222.107,-305.726,-152.894,0,0,0,
,-0.935,0.534,0.369,-575.257,-292.115,-33.509,0,0,0,
,-1.034,0.635,0.168,-738.831,-242.371,86.975,0,0,0,
,-1.127,0.689,0.057,-601.624,-144.41,186.95,0,0,0,
,-1.139,0.438,0.057,-406.617,-52.552,270.446,0,0,0,
,-1.135,0.077,0.123,-373.169,10.864,346.252,0,0,0,
,-1.14,-0.163,0.255,-435.852,51.086,384.46,0,0,0,
,-1.13,-0.401,0.392,-461.426,92.651,352.234,0,0,0,
,-1.078,-0.485,0.512,-449.83,107.055,228.454,0,0,0,
,-0.923,-0.397,0.677,-362.854,110.656,52.185,0,0,0,
,-0.731,-0.197,0.849,-156.922,109.069,-134.156,0,0,0,
,-0.559,-0.099,1.017,161.377,108.581,-323.365,0,0,0,
,-0.385,-0.054,1.168,350.525,88.806,-485.108,0,0,0,
,-0.202,0.161,1.282,376.464,35.522,-566.834,0,0,0,
,-0.001,0.567,1.377,404.541,-44.434,-535.035,0,0,0,
,0.084,0.817,1.382,593.078,-121.827,-471.497,0,0,0,
,0.018,0.746,1.303,711.425,-195.13,-379.029,0,0,0,
,-0.208,0.554,1.1,627.624,-256.775,-312.806,0,0,0,
,-0.477,0.462,0.958,353.942,-294.495,-230.896,0,0,0,
,-0.665,0.491,0.722,1.892,-293.152,-126.954,0,0,0,
,-0.855,0.57,0.446,-356.751,-267.823,-12.024,0,0,0,
,-1.011,0.676,0.159,-566.468,-210.022,118.53,0,0,0,
,-1.131,0.75,-0.032,-530.64,-104.004,224.365,0,0,0,
,-1.195,0.577,-0.075,-339.417,15.258,319.03,0,0,0,
,-1.231,0.25,-0.025,-239.93,122.863,426.574,0,0,0,
,-1.207,-0.018,0.061,-283.204,216.674,481.933,0,0,0,
,-1.195,-0.286,0.263,-309.998,282.47,459.9,0,0,0,
,-1.156,-0.452,0.452,-359.192,312.805,371.46,0,0,0,
,-1.048,-0.48,0.622,-391.968,299.621,212.097,0,0,0,
,-0.71,-0.074,1.008,26.184,193.664,-160.828,0,0,0,
,-0.553,0.002,1.249,346.923,128.967,-336.365,0,0,0,
,-0.375,0.019,1.356,494.812,79.711,-474.793,0,0,0,
,-0.154,0.277,1.384,461.181,-12.207,-512.207,0,0,0,
,0.021,0.597,1.421,514.77,-101.502,-478.272,0,0,0,
,0.118,0.767,1.361,671.447,-189.698,-389.283,0,0,0,
,0.068,0.603,1.207,752.075,-266.175,-314.698,0,0,0,
,-0.146,0.372,0.991,598.755,-297.974,-268.372,0,0,0,
,-0.429,0.294,0.776,201.294,-306.519,-175.415,0,0,0,
,-0.66,0.504,0.545,-286.988,-297.791,-86.06,0,0,0,
,-0.894,0.698,0.23,-549.622,-219.239,36.804,0,0,0,
,-1.052,0.86,0.023,-590.882,-138.977,165.222,0,0,0,
,-1.181,0.857,-0.051,-398.499,-32.105,280.639,0,0,0,
,-1.224,0.544,-0.03,-206.788,62.5,383.606,0,0,0,
,-1.218,0.161,0.066,-217.286,151.245,464.843,0,0,0,
,-1.196,-0.158,0.166,-306.458,212.646,514.77,0,0,0,
,-1.205,-0.413,0.32,-407.654,258.178,483.093,0,0,0,
,-1.173,-0.538,0.486,-513.428,303.527,405.639,0,0,0,
,-1.065,-0.463,0.595,-562.256,326.843,314.758,0,0,0,
,-0.917,-0.215,0.776,-405.823,306.884,192.627,0,0,0,
,-0.796,0.03,0.98,-25.757,281.372,63.354,0,0,0,
,-0.63,0.114,1.147,429.992,261.779,-49.439,0,0,0,
,-0.43,0.073,1.251,678.772,209.533,-170.899,0,0,0,
,-0.24,0.197,1.341,699.34,132.995,-195.069,0,0,0,
,-0.067,0.401,1.344,712.402,38.757,-198.548,0,0,0,
,-0.046,0.396,1.321,755.676,-68.726,-213.746,0,0,0,
,-0.164,0.246,1.24,612.182,-149.109,-211.609,0,0,0,
,-0.3,0.205,1.057,235.168,-234.62,-141.724,0,0,0,
,-0.538,0.265,0.807,-206.971,-307.19,-105.347,0,0,0,
,-0.783,0.407,0.553,-526.856,-304.078,-28.504,0,0,0,
,-0.914,0.557,0.282,-621.888,-253.663,79.101,0,0,0,
,-1.005,0.594,0.17,-542.603,-180.848,137.451,0,0,0,
,-1.064,0.527,0.05,-381.592,-88.135,251.22,0,0,0,
,-1.067,0.263,0.072,-279.969,-8.667,307.861,0,0,0,
,-1.081,-0.017,0.14,-296.021,76.965,350.036,0,0,0,
,-1.05,-0.206,0.247,-390.076,139.221,362.671,0,0,0,
,-1.045,-0.273,0.358,-437.5,190.185,280.578,0,0,0,
,-0.983,-0.249,0.493,-394.41,209.167,216.43,0,0,0,
,-0.886,-0.219,0.619,-230.591,217.468,95.825,0,0,0,
,-0.742,-0.169,0.768,-17.334,221.557,-41.81,0,0,0,
,-0.585,-0.209,0.914,241.821,205.627,-225.281,0,0,0,
,-0.473,-0.252,0.996,345.703,200.805,-395.935,0,0,0,
,-0.319,-0.094,1.087,335.449,158.447,-470.459,0,0,0,
,-0.183,0.223,1.224,417.846,96.191,-530.03,0,0,0,
,-0.08,0.468,1.332,602.966,30.761,-548.462,0,0,0,
,-0.065,0.545,1.406,778.015,-62.745,-506.226,0,0,0,
,-0.125,0.464,1.319,782.653,-141.785,-449.707,0,0,0,
,-0.315,0.358,1.168,577.27,-221.985,-372.071,0,0,0,
,-0.557,0.365,1.033,216.43,-273.987,-272.278,0,0,0,
,-0.746,0.47,0.831,-159.852,-305.176,-142.456,0,0,0,
,-1.029,0.645,0.371,-549.927,-293.763,88.073,0,0,0,
,-1.041,0.663,0.212,-445.13,-282.349,166.32,0,0,0,
,-1.108,0.41,0.145,-294.983,-262.391,255.005,0,0,0,
,-1.122,0.195,0.096,-345.337,-205.384,309.936,0,0,0,
,-1.092,0.042,0.067,-431.763,-143.921,375.244,0,0,0,
,-1.13,-0.111,0.154,-473.267,-91.004,376.831,0,0,0,
,-0.988,-0.313,0.373,-242.188,132.019,132.202,0,0,0,
,-0.91,-0.407,0.565,-53.833,214.416,-13.977,0,0,0,
,-0.769,-0.34,0.728,2.014,250.244,-162.781,0,0,0,
,-0.651,-0.27,0.885,116.394,276.977,-310.791,0,0,0,
,-0.484,-0.048,1.046,177.185,288.147,-407.166,0,0,0,
,-0.208,0.742,1.414,541.931,-27.1,-411.438,0,0,0,
,-0.315,0.746,1.299,646.484,-160.889,-340.516,0,0,0,
,-0.499,0.583,1.081,598.999,-239.808,-248.78,0,0,0,
,-0.68,0.396,0.85,346.557,-286.988,-193.299,0,0,0,
,-1.007,0.56,-0.01,-705.567,-188.233,157.287,0,0,0,
,-1.068,0.632,-0.183,-568.116,-54.871,277.71,0,0,0,
,-1.098,0.5,-0.175,-382.264,71.106,364.013,0,0,0,
,-1.081,0.239,-0.089,-298.829,161.804,451.904,0,0,0,
,-1.044,0.036,0.138,-249.512,209.045,521.423,0,0,0,
,-1.039,-0.157,0.413,-197.388,227.234,490.783,0,0,0,
,-0.986,-0.323,0.567,-178.162,232.299,394.47,0,0,0,
,-0.921,-0.383,0.762,-181.641,206.787,256.897,0,0,0,
,-0.813,-0.366,0.888,-119.141,180.603,84.655,0,0,0,
,-0.681,-0.256,0.998,5.859,155.456,-64.209,0,0,0,
,-0.528,-0.143,1.132,188.476,141.967,-229.432,0,0,0,
,-0.382,-0.06,1.235,356.018,115.844,-345.276,0,0,0,
,-0.129,0.414,1.254,653.503,-30.823,-424.561,0,0,0,
,-0.207,0.388,1.142,765.503,-102.662,-413.208,0,0,0,
,-0.41,0.294,1.029,718.567,-158.448,-377.869,0,0,0,
,-0.608,0.263,0.937,478.149,-204.224,-342.286,0,0,0,
,-0.757,0.353,0.796,94.909,-266.724,-269.593,0,0,0,
,-0.934,0.437,0.562,-279.725,-305.42,-171.814,0,0,0,
,-1.048,0.611,0.218,-625.916,-316.346,-28.565,0,0,0,
,-1.155,0.781,-0.043,-718.995,-265.809,120.849,0,0,0,
,-1.178,0.737,-0.179,-502.442,-169.556,252.99,0,0,0,
,-1.206,0.341,-0.116,-278.26,-68.97,355.957,0,0,0,
,-1.199,-0.117,-0.015,-324.769,83.435,426.452,0,0,0,
,-1.154,-0.366,0.081,-527.1,178.405,482.36,0,0,0,
,-1.157,-0.478,0.286,-637.085,229.187,417.114,0,0,0,
,-1.117,-0.459,0.471,-605.286,265.136,293.945,0,0,0,
,-0.981,-0.407,0.608,-421.204,293.457,116.15,0,0,0,
,-0.772,-0.249,0.763,-148.316,299.804,-49.622,0,0,0,
,-0.222,-0.075,1.304,527.649,216.98,-555.664,0,0,0,
,-0.052,0.312,1.433,560.547,110.839,-585.083,0,0,0,
,0.025,0.616,1.449,687.011,-13.733,-546.326,0,0,0,
,-0.029,0.682,1.374,839.05,-115.479,-484.742,0,0,0,
,-0.248,0.48,1.243,809.082,-212.098,-422.913,0,0,0,
,-0.507,0.315,1.085,423.706,-278.87,-330.689,0,0,0,
,-0.733,0.387,0.891,-112.147,62.455,5774.032,0,0,0,
,-1.043,0.987,0.127,-681.092,-322.266,64.514,0,0,0,
,-1.136,1.031,-0.082,-407.654,-242.92,235.351,0,0,0,
,-1.2,0.569,-0.108,-116.822,-154.358,348.999,0,0,0,
,-1.215,0.041,-0.064,-195.923,-47.242,464.172,0,0,0,
,-1.2,-0.331,0.025,-448.731,27.832,490.112,0,0,0,
,-1.25,-0.49,0.116,-664.429,89.965,537.902,0,0,0,
,-1.2,-0.427,0.254,-776.062,142.822,477.356,0,0,0,
,-1.112,-0.299,0.365,-655.274,163.879,338.134,0,0,0,
,-0.993,-0.316,0.549,-295.96,180.481,148.864,0,0,0,
,-0.807,-0.348,0.688,-31.373,227.478,-6.592,0,0,0,
,-0.584,-0.32,0.863,165.283,223.632,-193.177,0,0,0,
,-0.003,0.28,1.359,328.247,177.734,-479.798,0,0,0,
,0.023,0.622,1.488,472.29,42.785,-504.395,0,0,0,
,-0.021,0.708,1.479,643.737,-92.225,-504.212,0,0,0,
,-0.219,0.605,1.263,665.893,-209.534,-447.937,0,0,0,
,-0.494,0.525,1.055,481.689,-310.242,-392.029,0,0,0,
,-0.744,0.528,0.808,265.197,-374.878,-330.445,0,0,0,
,-0.871,0.542,0.536,-15.503,-371.705,-267.029,0,0,0,
,-0.958,0.517,0.258,-312.012,-365.784,-135.743,0,0,0,
,-1.364,0.42,-0.17,-601.441,24.841,417.358,0,0,0,
,-1.339,0.154,-0.135,-552.185,187.805,532.653,0,0,0,
,-1.286,-0.138,-0.042,-604.187,323.791,645.141,0,0,0,
,-1.226,-0.264,0.163,-716.126,407.043,633.972,0,0,0,
,-1.161,-0.28,0.403,-659.913,454.528,560.913,0,0,0,
,-1.023,-0.26,0.638,-392.64,461.609,381.225,0,0,0,
,-0.777,-0.314,0.824,-34.058,430.236,143.737,0,0,0,
,-0.318,-0.318,1.125,474.182,230.529,-484.498,0,0,0,
,-0.17,-0.041,1.131,391.723,212.89,-547.425,0,0,0,
,-0.001,0.316,1.182,412.17,141.845,-569.397,0,0,0,
,0.027,0.568,1.305,527.71,29.907,-586.365,0,0,0,
,-0.061,0.674,1.33,602.417,-73.243,-537.415,0,0,0,
,-0.223,0.64,1.204,546.386,-176.453,-469.178,0,0,0,
,-0.474,0.603,1.022,335.815,-270.997,-387.269,0,0,0,
,-0.666,0.674,0.813,82.275,-352.539,-286.316,0,0,0,
,-0.814,0.729,0.516,-177.796,-388.489,-185.364,0,0,0,
,-0.945,0.831,0.28,-350.464,-392.945,-46.082,0,0,0,
,-1.067,0.83,0.041,-357.178,-330.506,97.29,0,0,0,
,-1.137,0.631,-0.102,-272.889,-222.352,236.755,0,0,0,
,-1.168,0.258,-0.118,-246.766,-99.122,395.202,0,0,0,
,-1.191,-0.027,-0.064,-385.132,37.17,518.127,0,0,0,
,-1.178,-0.279,0.026,-504.639,172.729,574.279,0,0,0,
,-1.172,-0.432,0.171,-596.924,250.427,559.936,0,0,0,
,-1.159,-0.47,0.388,-594.605,293.335,442.382,0,0,0,
,-1.043,-0.474,0.63,-466.797,295.959,258.056,0,0,0,
,-0.582,-0.269,1.071,325.866,136.108,-367.249,0,0,0,
,-0.404,-0.159,1.185,405.578,109.069,-533.753,0,0,0,
,-0.22,0.154,1.285,380.005,69.336,-572.388,0,0,0,
,-0.04,0.6,1.377,434.57,-6.043,-511.963,0,0,0,
,-0.008,0.865,1.371,585.144,-81.421,-461.548,0,0,0,
,-0.167,0.752,1.253,740.173,-162.964,-397.339,0,0,0,
,-0.455,0.465,1.064,598.938,-212.891,-318.055,0,0,0,
,-0.701,0.383,0.867,188.293,-261.902,-204.712,0,0,0,
,-0.899,0.488,0.547,-222.474,-265.381,-100.098,0,0,0,
,-1.006,0.722,0.188,-431.458,-218.689,76.843,0,0,0,
,-1.126,0.836,-0.006,-382.325,-178.467,185.73,0,0,0,
,-1.2,0.551,-0.102,-176.331,-74.158,308.654,0,0,0,
,-1.193,0.163,-0.11,-152.283,57.983,413.269,0,0,0,
,-1.169,-0.154,-0.026,-327.454,157.226,505.188,0,0,0,
,-1.162,-0.374,0.125,-451.294,226.867,498.108,0,0,0,
,-1.132,-0.589,0.331,-498.597,270.752,357.422,0,0,0,
,-1.04,-0.642,0.492,-599.915,263.244,186.096,0,0,0,
,-0.871,-0.422,0.632,-587.952,236.572,34.973,0,0,0,
,-0.672,-0.127,0.8,-312.928,201.416,-156.189,0,0,0,
,-0.522,0.034,1.055,122.192,151.672,-328.858,0,0,0,
,-0.426,0.01,1.259,458.007,109.008,-531.311,0,0,0,
,-0.284,0.098,1.409,459.777,77.026,-592.835,0,0,0,
,-0.087,0.409,1.434,351.196,-25.33,-562.745,0,0,0,
,-0.08,0.73,1.358,350.891,-132.264,-481.507,0,0,0,
,-0.25,0.791,1.203,498.23,-200.257,-361.939,0,0,0,
,-0.561,0.53,1.065,518.982,-208.924,-227.784,0,0,0,
,-0.763,0.334,0.895,225.036,-191.346,-75.074,0,0,0,
,-0.886,0.356,0.626,-237.671,-188.172,29.48,0,0,0,
,-1.016,0.559,0.262,-553.528,-185.852,178.161,0,0,0,
,-1.128,0.721,-0.03,-646.912,-120.667,294.372,0,0,0,
,-1.176,0.733,-0.246,-425.293,-15.32,354.614,0,0,0,
,-1.151,0.429,-0.249,-158.692,83.313,401.672,0,0,0,
,-1.132,0.132,-0.151,-91.98,183.899,473.327,0,0,0,
,-1.08,-0.207,0.042,-75.623,247.253,462.158,0,0,0,
,-1.014,-0.493,0.285,-123.475,272.277,377.685,0,0,0,
,-0.972,-0.634,0.531,-188.294,262.39,221.74,0,0,0,
,-0.872,-0.58,0.677,-251.221,255.31,34.057,0,0,0,
,-0.7,-0.387,0.823,-176.819,218.078,-166.382,0,0,0,
,-0.577,-0.16,1.036,26.916,175.171,-312.561,0,0,0,
,-0.429,0.011,1.246,271.606,125.061,-501.038,0,0,0,
,-0.301,0.195,1.424,411.499,56.579,-585.389,0,0,0,
,-0.138,0.477,1.483,521.057,-15.748,-590.577,0,0,0,
,-0.057,0.697,1.398,644.775,-126.709,-526.856,0,0,0,
,-0.184,0.712,1.269,755.31,-227.784,-441.163,0,0,0,
,-0.446,0.538,1.053,737.426,-265.076,-311.524,0,0,0,
,-0.672,0.391,0.896,455.2,-299.683,-208.558,0,0,0,
,-0.877,0.275,0.66,-25.635,-305.603,-121.399,0,0,0,
,-0.946,0.373,0.217,-539.551,-266.358,3.418,0,0,0,
,-1.053,0.571,-0.052,-836.243,-223.267,166.076,0,0,0,
,-1.159,0.655,-0.172,-695.862,-80.75,282.104,0,0,0,
,-1.174,0.371,-0.063,-442.322,53.833,334.961,0,0,0,
,-1.198,-0.14,0.134,-330.75,166.259,346.13,0,0,0,
,-1.159,-0.476,0.295,-486.512,196.106,333.007,0,0,0,
,-1.112,-0.488,0.428,-631.226,182.067,222.656,0,0,0,
,-1.043,-0.372,0.456,-538.941,199.279,60.974,0,0,0,
,-0.794,-0.247,0.586,-272.278,202.331,-120.789,0,0,0,
,-0.654,-0.134,0.837,-1.587,153.747,-235.047,0,0,0,
,-0.535,-0.04,1.067,227.966,177.429,-364.808,0,0,0,
,-0.353,0.13,1.209,314.209,138.794,-445.252,0,0,0,
,-0.236,0.484,1.386,337.341,60.669,-407.837,0,0,0,
,-0.11,0.809,1.398,428.344,-36.988,-300.538,0,0,0,
,-0.271,0.792,1.276,608.886,-150.025,-262.757,0,0,0,
,-0.5,0.568,1.032,542.846,-209.168,-195.13,0,0,0,
,-0.697,0.394,0.72,194.336,-263.306,-144.715,0,0,0,
,-0.878,0.315,0.417,-220.032,-265.686,-91.858,0,0,0,
,-0.871,0.358,0.095,-630.372,-203.98,5.798,0,0,0,
,-0.971,0.486,-0.135,-766.114,-128.052,101.623,0,0,0,
,-1.063,0.522,-0.122,-643.311,21.118,153.747,0,0,0,
,-1.048,0.272,-0.009,-428.04,175.842,152.16,0,0,0,
,-1.051,-0.058,0.176,-304.383,231.323,131.469,0,0,0,
,-1.06,-0.287,0.448,-305.42,207.946,54.565,0,0,0,
,-1.007,-0.329,0.615,-297.303,191.284,-47.364,0,0,0,
,-0.804,-0.267,0.661,-215.21,163.757,-186.158,0,0,0,
,-0.632,-0.05,0.772,-76.6,84.289,-332.581,0,0,0,
,-0.527,0.178,1.02,146.301,32.775,-438.782,0,0,0,
,-0.449,0.367,1.217,317.443,1.648,-518.067,0,0,0,
,-0.306,0.589,1.331,424.499,-47.181,-472.657,0,0,0,
,-0.219,0.82,1.319,526.611,-164.49,-344.117,0,0,0,
,-0.352,0.787,1.205,563.354,-255.31,-257.874,0,0,0,
,-0.567,0.582,0.983,431.274,-316.895,-214.295,0,0,0,
,-0.751,0.495,0.744,104.309,-360.657,-120.85,0,0,0,
,-0.815,0.483,0.425,-202.637,-343.018,-72.083,0,0,0,
,-0.849,0.541,0.154,-429.932,-289.673,24.231,0,0,0,
,-0.903,0.619,-0.072,-502.381,-214.966,122.558,0,0,0,
,-1.036,0.564,-0.133,-420.716,-66.834,178.955,0,0,0,
,-1.047,0.394,-0.123,-365.174,109.192,271.545,0,0,0,
,-1.051,0.162,-0.053,-374.085,230.163,308.899,0,0,0,
,-1.049,-0.088,0.147,-417.298,321.106,282.47,0,0,0,
,-1.03,-0.233,0.368,-479.798,360.473,185.119,0,0,0,
,-0.953,-0.253,0.523,-500.977,376.22,64.514,0,0,0,
,-0.797,-0.113,0.677,-435.608,351.257,-69.153,0,0,0,
,-0.626,0.121,0.874,-204.529,278.259,-174.927,0,0,0,
,-0.529,0.233,1.115,136.535,185.241,-311.341,0,0,0,
,-0.457,0.284,1.302,382.568,92.041,-411.011,0,0,0,
,-0.33,0.422,1.362,439.392,-12.146,-412.537,0,0,0,
,-0.24,0.717,1.312,460.327,-136.963,-369.812,0,0,0,
,-0.297,0.922,1.2,546.875,-259.583,-270.386,0,0,0,
,-0.473,0.843,0.979,708.984,-323.853,-188.538,0,0,0,
,-0.716,0.634,0.748,640.503,-370.667,-156.861,0,0,0,
,-0.861,0.456,0.533,336.609,-381.775,-102.539,0,0,0,
,-0.911,0.34,0.259,-78.858,-360.352,-49.805,0,0,0,
,-0.958,0.362,-0.03,-456.849,-283.265,16.052,0,0,0,
,-0.979,0.558,-0.229,-625.55,-192.994,96.435,0,0,0,
,-1.065,0.543,-0.262,-530.762,-45.96,179.992,0,0,0,
,-1.103,0.352,-0.176,-440.674,145.507,243.103,0,0,0,
,-1.042,0.106,-0.052,-454.346,288.94,302.002,0,0,0,
,-1.043,-0.032,0.221,-499.939,372.497,278.503,0,0,0,
,-0.972,-0.172,0.492,-473.877,419.372,179.992,0,0,0,
,-0.862,-0.138,0.733,-458.619,377.563,50.842,0,0,0,
,-0.709,0.009,0.934,-332.703,282.165,-98.45,0,0,0,
,-0.605,0.172,1.079,-69.214,167.236,-220.032,0,0,0,
,-0.514,0.233,1.211,238.647,77.331,-346.863,0,0,0,
,-0.391,0.313,1.319,416.809,-28.321,-415.589,0,0,0,
,-0.309,0.521,1.278,467.773,-106.385,-408.448,0,0,0,
,-0.261,0.762,1.154,592.895,-164.063,-298.157,0,0,0,
,-0.377,0.779,1.021,804.748,-211.609,-260.621,0,0,0,
,-0.546,0.684,0.892,865.844,-249.268,-186.768,0,0,0,
,-0.704,0.529,0.761,732.849,-275.33,-188.965,0,0,0,
,-0.818,0.453,0.575,370.788,-307.618,-110.718,0,0,0,
,-0.86,0.476,0.311,-70.069,-303.101,-46.509,0,0,0,
,-0.946,0.524,0.012,-428.162,-267.762,42.358,0,0,0,
,-1.013,0.589,-0.149,-617.432,-169.373,144.104,0,0,0,
,-1.048,0.635,-0.234,-577.149,-5.555,233.398,0,0,0,
,-1.05,0.473,-0.148,-455.018,144.531,276.123,0,0,0,
,-1.042,0.2,-0.064,-369.08,287.963,317.566,0,0,0,
,-0.992,0.035,0.192,-386.353,351.318,292.48,0,0,0,
,-0.974,-0.127,0.482,-296.021,381.591,171.569,0,0,0,
,-0.848,-0.195,0.733,-204.224,380.92,50.109,0,0,0,
,-0.687,-0.164,0.932,-135.498,305.908,-155.945,0,0,0,
,-0.567,-0.006,1.114,27.465,198.913,-277.161,0,0,0,
,-0.431,0.164,1.234,223.144,95.336,-405.152,0,0,0,
,-0.353,0.343,1.311,378.601,-24.659,-433.594,0,0,0,
,-0.308,0.617,1.327,466.613,-117.371,-381.226,0,0,0,
,-0.344,0.753,1.197,639.465,-184.021,-308.35,0,0,0,
,-0.492,0.669,1.007,784.179,-215.332,-240.906,0,0,0,
,-0.634,0.513,0.832,752.136,-229.065,-182.435,0,0,0,
,-0.752,0.429,0.657,496.032,-229.798,-129.029,0,0,0,
,-0.812,0.414,0.45,105.346,-232.361,-50.415,0,0,0,
,-0.899,0.471,0.235,-311.646,-210.816,23.437,0,0,0,
,-0.953,0.567,0.009,-617.92,-156.311,134.887,0,0,0,
,-1.003,0.725,-0.151,-662.781,-39.307,245.178,0,0,0,
,-1.006,0.678,-0.18,-514.771,92.956,293.09,0,0,0,
,-1,0.37,-0.079,-365.479,208.801,347.29,0,0,0,
,-1.002,0.075,0.018,-437.378,312.744,382.202,0,0,0,
,-0.986,-0.056,0.193,-556.153,377.685,348.205,0,0,0,
,-0.958,-0.121,0.413,-531.495,426.941,255.493,0,0,0,
,-0.88,-0.136,0.582,-386.292,426.269,126.037,0,0,0,
,-0.741,-0.048,0.809,-171.204,356.689,2.685,0,0,0,
,-0.623,0.118,1.051,179.077,263.244,-120.545,0,0,0,
,-0.52,0.175,1.205,535.522,178.344,-253.052,0,0,0,
,-0.443,0.199,1.321,749.511,52.307,-345.276,0,0,0,
,-0.348,0.353,1.391,767.395,-51.087,-324.585,0,0,0,
,-0.3,0.58,1.355,811.828,-164.673,-272.706,0,0,0,
,-0.367,0.532,1.288,924.865,-224.976,-261.658,0,0,0,
,-0.454,0.342,1.179,860.778,-252.564,-224.366,0,0,0,
,-0.558,0.196,0.955,525.695,-277.955,-160.767,0,0,0,
,-0.684,0.227,0.713,-39.612,-324.402,-112,0,0,0,
,-0.842,0.408,0.449,-506.226,-313.599,-26.551,0,0,0,
,-0.938,0.634,0.07,-745.85,-247.193,88.012,0,0,0,
,-0.976,0.863,-0.106,-727.845,-142.395,198.486,0,0,0,
,-1.033,0.747,-0.165,-465.943,13.977,291.442,0,0,0,
,-1.025,0.414,-0.137,-316.407,139.343,370.666,0,0,0,
,-1.009,0.095,-0.061,-401.612,243.774,422.058,0,0,0,
,-1.023,-0.042,0.06,-489.502,332.031,403.686,0,0,0,
,-0.979,-0.008,0.252,-393.799,404.724,335.815,0,0,0,
,-0.894,-0.033,0.459,-159.058,413.208,219.238,0,0,0,
,-0.759,-0.069,0.794,121.215,408.203,83.862,0,0,0,
,-0.617,-0.132,1.139,426.391,374.023,-59.937,0,0,0,
,-0.483,-0.177,1.298,554.443,279.663,-214.234,0,0,0,
,-0.359,0.018,1.438,582.824,122.07,-322.876,0,0,0,
,-0.264,0.19,1.52,655.822,-2.808,-394.043,0,0,0,
,-0.216,0.338,1.499,709.9,-137.269,-365.784,0,0,0,
,-0.296,0.36,1.35,715.759,-235.657,-333.924,0,0,0,
,-0.467,0.275,1.132,629.15,-274.72,-291.81,0,0,0,
,-0.627,0.27,0.936,358.154,-317.078,-202.332,0,0,0,
,-0.768,0.387,0.677,-47.974,-339.173,-109.436,0,0,0,
,-0.917,0.483,0.364,-378.907,-318.787,7.934,0,0,0,
,-1.027,0.614,0.001,-625.184,-247.437,152.893,0,0,0,
,-1.064,0.74,-0.189,-659.119,-89.905,291.687,0,0,0,
,-1.08,0.625,-0.251,-468.262,65.368,404.907,0,0,0,
,-1.036,0.231,-0.132,-384.034,207.031,439.636,0,0,0,
,-1.022,-0.159,0.014,-428.589,294.922,453.674,0,0,0,
,-1.018,-0.426,0.228,-567.261,324.157,338.928,0,0,0,
,-0.978,-0.459,0.359,-684.266,331.054,197.204,0,0,0,
,-0.873,-0.298,0.615,-665.711,301.269,42.053,0,0,0,
,-0.716,-0.043,0.886,-367.92,272.155,-118.409,0,0,0,
,-0.591,0.099,1.145,94.116,233.459,-270.569,0,0,0,
,-0.473,0.049,1.276,465.149,175.781,-424.439,0,0,0,
,-0.344,0.087,1.425,565.063,78.979,-474.915,0,0,0,
,-0.218,0.314,1.508,536.926,-48.645,-460.328,0,0,0,
,-0.211,0.57,1.438,581.115,-171.326,-391.358,0,0,0,
,-0.355,0.567,1.229,671.692,-248.536,-322.327,0,0,0,
,-0.52,0.443,1.013,635.009,-256.165,-272.522,0,0,0,
,-0.661,0.385,0.808,387.451,-272.644,-184.327,0,0,0,
,-0.822,0.413,0.584,54.443,-289.429,-86.976,0,0,0,
,-0.921,0.421,0.343,-296.143,-254.395,3.234,0,0,0,
,-0.994,0.438,0.076,-656.373,-207.825,149.841,0,0,0,
,-1.049,0.533,-0.052,-861.451,-134.156,245.483,0,0,0,
,-1.115,0.601,-0.132,-775.757,35.949,355.163,0,0,0,
,-1.089,0.302,-0.098,-618.592,199.585,381.958,0,0,0,
,-1.054,-0.046,0.01,-613.038,326.11,433.838,0,0,0,
,-1.027,-0.141,0.187,-715.699,373.718,383.667,0,0,0,
,-0.988,-0.118,0.361,-586.121,398.071,286.316,0,0,0,
,-0.881,-0.035,0.562,-219.544,389.038,114.38,0,0,0,
,-0.776,-0.08,0.83,318.298,362.426,-28.87,0,0,0,
,-0.667,-0.198,1.044,691.223,344.36,-186.585,0,0,0,
,-0.509,-0.222,1.187,889.831,315.49,-343.934,0,0,0,
,-0.313,-0.037,1.315,937.744,237.121,-447.632,0,0,0,
,-0.152,0.211,1.557,954.895,140.991,-491.822,0,0,0,
,-0.024,0.413,1.66,941.101,10.131,-433.533,0,0,0,
,0.006,0.422,1.536,812.622,-124.329,-397.522,0,0,0,
,-0.175,0.368,1.267,556.823,-271.79,-302.43,0,0,0,
,-0.473,0.326,1.087,198.486,-339.478,-216.797,0,0,0,
,-0.754,0.427,0.752,-360.291,-375.977,-113.465,0,0,0,
,-0.911,0.735,0.41,-711.121,-325.989,45.227,0,0,0,
,-0.988,0.817,0.139,-600.586,-228.089,172.912,0,0,0,
,-1.064,0.667,0.004,-358.46,-120.484,258.361,0,0,0,
,-1.079,0.278,0.01,-303.589,-24.842,351.989,0,0,0,
,-1.115,-0.09,0.12,-475.892,52.307,408.447,0,0,0,
,-1.142,-0.289,0.108,-662.964,125.366,388.244,0,0,0,
,-1.111,-0.409,0.229,-749.817,161.438,327.942,0,0,0,
,-1.104,-0.443,0.394,-741.639,171.447,174.194,0,0,0,
,-0.99,-0.292,0.567,-623.902,191.955,27.587,0,0,0,
,-0.767,-0.049,0.699,-317.872,201.965,-85.267,0,0,0,
,-0.615,0.086,0.916,140.808,211.975,-242.981,0,0,0,
,-0.501,-0.038,1.089,556.213,226.989,-398.438,0,0,0,
,-0.308,-0.006,1.233,572.815,182.067,-468.079,0,0,0,
,-0.12,0.344,1.354,489.257,69.885,-464.6,0,0,0,
,-0.072,0.636,1.381,623.169,-43.946,-437.928,0,0,0,
,-0.158,0.593,1.317,750.305,-133.118,-384.949,0,0,0,
,-0.344,0.413,1.143,638.427,-212.403,-338.44,0,0,0,
,-0.581,0.384,0.921,322.448,-299.683,-283.387,0,0,0,
,-0.785,0.494,0.716,-41.443,-351.38,-199.707,0,0,0,
,-0.91,0.629,0.383,-295.411,-326.6,-82.52,0,0,0,
,-0.953,0.7,0.156,-421.936,-267.762,51.269,0,0,0,
,-1.05,0.654,0.043,-397.461,-158.936,187.439,0,0,0,
,-1.077,0.383,-0.004,-381.592,-22.706,314.026,0,0,0,
,-1.088,0.133,0.021,-455.079,91.857,414.611,0,0,0,
,-1.09,-0.064,0.058,-533.081,205.627,440.612,0,0,0,
,-1.084,-0.153,0.144,-517.823,272.155,426.269,0,0,0,
,-1.046,-0.195,0.27,-434.021,323.791,311.95,0,0,0,
,-0.936,-0.089,0.466,-237.915,374.755,229.736,0,0,0,
,-0.77,-0.089,0.777,147.4,455.627,135.742,0,0,0,
,-0.614,-0.192,1.06,464.294,477.722,20.568,0,0,0,
,-0.425,-0.248,1.208,582.458,431.64,-159.424,0,0,0,
,-0.243,-0.049,1.427,558.532,298.828,-261.963,0,0,0,
,-0.154,0.267,1.635,597.351,136.047,-309.876,0,0,0,
,-0.106,0.421,1.62,691.955,-11.109,-302.124,0,0,0,
,-0.162,0.353,1.474,718.383,-169.312,-301.148,0,0,0,
,-0.377,0.228,1.213,563.171,-315.979,-270.081,0,0,0,
,-0.598,0.202,0.987,284.362,-381.409,-245.484,0,0,0,
,-0.693,0.262,0.729,-54.078,-398.621,-189.148,0,0,0,
,-0.843,0.33,0.437,-414.612,-406.983,-123.352,0,0,0,
,-0.949,0.445,0.153,-692.81,-373.841,6.836,0,0,0,
,-1.05,0.559,-0.017,-776.185,-272.583,119.079,0,0,0,
,-1.109,0.452,-0.138,-669.983,-120.301,236.633,0,0,0,
,-1.124,0.221,-0.14,-599.793,35.034,325.622,0,0,0,
,-1.101,-0.053,-0.04,-531.434,164.856,355.041,0,0,0,
,-1.056,-0.31,0.183,-511.963,250.915,306.701,0,0,0,
,-1.003,-0.437,0.389,-443.665,326.599,163.513,0,0,0,
,-0.845,-0.421,0.559,-398.682,372.985,-3.663,0,0,0,
,-0.617,-0.141,0.74,-196.045,374.084,-143.433,0,0,0,
,-0.266,0.229,1.499,717.895,212.585,-523.072,0,0,0,
,-0.101,0.505,1.644,836.425,55.908,-500.916,0,0,0,
,-0.149,0.476,1.609,953.735,-103.089,-486.39,0,0,0,
,-0.314,0.279,1.476,774.353,-265.137,-451.783,0,0,0,
,-0.501,0.203,1.249,367.37,-360.962,-377.32,0,0,0,
,-0.657,0.255,0.942,-121.338,-430.542,-274.048,0,0,0,
,-0.795,0.387,0.537,-593.262,-418.763,-162.171,0,0,0,
,-0.935,0.633,0.309,-886.231,-364.014,-3.235,0,0,0,
,-1.002,0.778,0.002,-782.044,-209.412,147.644,0,0,0,
,-1.033,0.426,-0.162,-460.022,157.409,354.37,0,0,0,
,-0.964,0.136,-0.09,-471.985,320.739,402.16,0,0,0,
,-0.944,-0.116,0.122,-521.241,470.214,379.394,0,0,0,
,-0.889,-0.245,0.328,-579.59,565.246,305.786,0,0,0,
,-0.805,-0.281,0.531,-558.045,578.552,185.485,0,0,0,
,-0.743,-0.207,0.801,-391.846,522.216,18.493,0,0,0,
,-0.646,-0.105,1.028,-76.233,401.062,-109.314,0,0,0,
,-0.523,0.026,1.173,241.76,257.08,-270.081,0,0,0,
,-0.426,0.116,1.311,536.621,114.99,-396.851,0,0,0,
,-0.303,0.23,1.36,671.081,-32.532,-455.872,0,0,0,
,-0.228,0.438,1.326,744.018,-155.762,-418.58,0,0,0,
,-0.279,0.538,1.233,839.416,-261.414,-369.996,0,0,0,
,-0.453,0.375,1.081,871.154,-287.842,-348.877,0,0,0,
,-0.564,0.215,0.994,580.017,-303.833,-294.678,0,0,0,
,-0.673,0.205,0.846,44.006,-343.995,-230.103,0,0,0,
,-0.777,0.356,0.52,-475.586,-367.554,-137.818,0,0,0,
,-0.92,0.641,0.289,-841.614,-353.028,-18.311,0,0,0,
,-1.003,0.843,0.146,-845.765,-247.559,152.343,0,0,0,
,-1.008,0.771,0.014,-533.204,-75.745,232.422,0,0,0,
,-0.973,0.332,0.008,-376.16,87.707,335.754,0,0,0,
,-0.96,0.045,0.032,-456.299,193.725,373.169,0,0,0,
,-0.96,-0.143,0.232,-525.391,264.526,333.13,0,0,0,
,-0.945,-0.326,0.436,-481.995,329.223,226.318,0,0,0,
,-0.838,-0.352,0.625,-457.703,345.459,65.307,0,0,0,
,-0.66,-0.215,0.783,-345.337,316.589,-116.944,0,0,0,
,-0.601,-0.078,0.932,-61.951,278.259,-281.434,0,0,0,
,-0.484,0.082,1.111,233.032,213.379,-380.982,0,0,0,
,-0.372,0.211,1.229,493.591,137.756,-464.783,0,0,0,
,-0.277,0.403,1.351,660.461,27.648,-483.155,0,0,0,
,-0.217,0.567,1.406,775.756,-61.402,-428.04,0,0,0,
,-0.252,0.613,1.361,834.045,-168.885,-378.479,0,0,0,
,-0.395,0.512,1.189,766.906,-239.38,-327.82,0,0,0,
,-0.498,0.415,1.055,497.558,-291.443,-248.536,0,0,0,
,-0.581,0.402,0.889,63.11,-367.249,-151.307,0,0,0,
,-0.753,0.474,0.596,-328.797,-391.114,-68.36,0,0,0,
,-0.876,0.621,0.288,-662.842,-354.859,67.932,0,0,0,
,-0.996,0.818,0.114,-794.678,-265.381,209.655,0,0,0,
,-1.039,0.83,-0.039,-593.079,-91.248,324.524,0,0,0,
,-1.004,0.47,-0.076,-383.973,92.529,406.555,0,0,0,
,-0.965,0.078,0.026,-428.65,233.703,475.158,0,0,0,
,-0.975,-0.156,0.14,-592.53,333.618,490.112,0,0,0,
,-0.964,-0.292,0.4,-622.925,397.4,413.696,0,0,0,
,-0.925,-0.402,0.614,-562.195,401.611,238.708,0,0,0,
,-0.755,-0.352,0.827,-479.493,358.459,26.001,0,0,0,
,-0.618,-0.102,0.991,-253.54,258.239,-179.261,0,0,0,
,-0.524,0.083,1.153,213.623,168.396,-340.577,0,0,0,
,-0.425,0.092,1.229,502.197,91.43,-503.235,0,0,0,
,-0.299,0.216,1.284,645.141,5.493,-545.289,0,0,0,
,-0.272,0.706,1.187,943.298,-188.843,-376.526,0,0,0,
,-0.4,0.585,1.004,867.553,-237.244,-299.744,0,0,0,
,-0.583,0.482,0.892,525.268,-302.674,-221.619,0,0,0,
,-0.734,0.502,0.73,83.129,-366.089,-121.949,0,0,0,
,-0.879,0.587,0.45,-330.14,-359.436,-25.452,0,0,0,
,-0.95,0.718,0.156,-597.168,-302.918,143.737,0,0,0,
,-0.993,0.856,-0.01,-617.188,-208.497,290.283,0,0,0,
,-1.064,0.587,-0.029,-351.868,-21.241,410.156,0,0,0,
,-1.062,0.225,0.021,-298.89,130.066,507.751,0,0,0,
,-1.03,-0.146,0.104,-463.99,271.179,545.715,0,0,0,
,-1.045,-0.319,0.301,-583.435,339.965,512.756,0,0,0,
,-1.022,-0.473,0.503,-630.005,379.516,375.366,0,0,0,
,-0.909,-0.421,0.679,-612.183,344.604,175.109,0,0,0,
,-0.735,-0.256,0.838,-364.624,324.89,-38.514,0,0,0,
,-0.558,-0.077,0.978,53.955,273.62,-244.263,0,0,0,
,-0.429,-0.024,1.145,456.237,215.454,-439.698,0,0,0,
,-0.287,0.003,1.262,699.829,171.753,-554.81,0,0,0,
,-0.119,0.212,1.362,727.6,86.059,-583.191,0,0,0,
,-0.004,0.495,1.383,745.788,-5.433,-557.923,0,0,0,
,-0.045,0.616,1.377,779.174,-110.779,-514.954,0,0,0,
,-0.228,0.557,1.269,711.547,-185.914,-431.092,0,0,0,
,-0.401,0.51,1.081,406.067,-238.831,-324.463,0,0,0,
,-0.571,0.458,0.927,-5.005,-324.158,-241.089,0,0,0,
,-0.813,0.691,0.54,-563.416,-381.531,-20.691,0,0,0,
,-0.945,1.136,0.185,-661.011,-349.488,112.548,0,0,0,
,-1.023,1.11,0.049,-248.414,-210.389,256.775,0,0,0,
,-1.058,0.583,0.029,22.216,-60.303,341.247,0,0,0,
,-1.009,0.167,0.023,-128.357,30.517,446.35,0,0,0,
,-1.003,-0.063,0.088,-442.444,107.544,513,0,0,0,
,-1.039,-0.237,0.16,-570.435,207.153,480.102,0,0,0,
,-1.045,-0.422,0.365,-577.027,267.517,372.802,0,0,0,
,-1.025,-0.595,0.568,-569.031,272.461,165.771,0,0,0,
,-0.905,-0.561,0.72,-547.73,278.869,-61.463,0,0,0,
,-0.673,-0.255,0.847,-359.559,262.756,-220.276,0,0,0,
,-0.477,0.044,1.123,17.089,233.642,-403.016,0,0,0,
,-0.304,0.184,1.391,424.255,162.841,-555.176,0,0,0,
,-0.184,0.344,1.541,588.44,39.856,-568.97,0,0,0,
,-0.022,0.609,1.49,615.356,-69.214,-527.466,0,0,0,
,-0.041,0.802,1.328,697.387,-217.774,-426.819,0,0,0,
,-0.262,0.674,1.139,811.584,-307.19,-346.619,0,0,0,
,-0.498,0.452,0.992,698.73,-345.337,-304.81,0,0,0,
,-0.652,0.377,0.868,376.953,-370.85,-238.038,0,0,0,
,-0.844,0.596,0.281,-508.362,-346.924,-32.898,0,0,0,
,-0.925,0.812,0.022,-684.51,-262.207,123.108,0,0,0,
,-1.01,0.807,-0.111,-545.044,-111.451,261.779,0,0,0,
,-1.036,0.519,-0.111,-398.865,54.077,393.249,0,0,0,
,-1.017,0.177,-0.034,-415.406,210.754,477.295,0,0,0,
,-1.032,-0.082,0.124,-528.199,301.086,517.089,0,0,0,
,-1.075,-0.301,0.338,-583.313,357.91,457.702,0,0,0,
,-1.06,-0.441,0.597,-540.894,366.882,302.673,0,0,0,
,-0.931,-0.407,0.843,-425.782,360.107,92.346,0,0,0,
,-0.718,-0.276,0.968,-190.186,333.496,-99.793,0,0,0,
,-0.518,-0.097,1.192,117.736,276.184,-290.955,0,0,0,
,-0.341,-0.024,1.408,356.384,133.545,-454.712,0,0,0,
,-0.25,0.226,1.514,455.078,-1.038,-515.381,0,0,0,
,-0.106,0.535,1.398,564.026,-82.764,-503.907,0,0,0,
,-0.067,0.775,1.236,758.361,-176.514,-428.162,0,0,0,
,-0.189,0.723,1.109,928.833,-244.507,-371.949,0,0,0,
,-0.376,0.517,0.963,915.222,-280.762,-310.425,0,0,0,
,-0.532,0.396,0.856,640.197,-324.341,-262.696,0,0,0,
,-0.692,0.461,0.757,216.98,-362.793,-195.801,0,0,0,
,-0.806,0.526,0.527,-263.001,-356.263,-101.441,0,0,0,
,-0.902,0.625,0.198,-661.255,-334.778,50.109,0,0,0,
,-1.022,0.802,-0.003,-797.608,-242.371,225.158,0,0,0,
,-1.117,0.805,-0.066,-557.129,-76.966,368.53,0,0,0,
,-1.097,0.378,0.041,-261.78,119.384,472.9,0,0,0,
,-1.064,-0.066,0.126,-289.307,226.806,525.94,0,0,0,
,-1.054,-0.323,0.244,-431.702,270.752,494.812,0,0,0,
,-1.023,-0.423,0.441,-513.611,289.245,372.009,0,0,0,
,-0.939,-0.39,0.628,-439.759,290.405,194.885,0,0,0,
,-0.787,-0.317,0.778,-228.821,290.405,-66.224,0,0,0,
,-0.629,-0.191,0.935,3.173,287.109,-218.506,0,0,0,
,-0.414,-0.014,1.126,306.335,253.906,-371.155,0,0,0,
,-0.275,0.053,1.28,532.409,206.421,-473.328,0,0,0,
,-0.143,0.221,1.438,583.13,112.304,-494.324,0,0,0,
,-0.059,0.543,1.463,599.304,-38.697,-444.214,0,0,0,
,-0.16,0.705,1.378,721.923,-177.063,-385.621,0,0,0,
,-0.403,0.519,1.172,754.516,-256.287,-366.944,0,0,0,
,-0.55,0.36,0.957,509.216,-318.116,-297.547,0,0,0,
,-0.721,0.428,0.784,108.886,-402.222,-230.713,0,0,0,
,-0.889,0.498,0.516,-263.245,-395.508,-142.762,0,0,0,
,-0.95,0.632,0.164,-636.536,-352.601,3.173,0,0,0,
,-1.008,0.759,-0.062,-750.977,-268.86,140.747,0,0,0,
,-1.073,0.703,-0.152,-585.999,-101.136,281.982,0,0,0,
,-1.047,0.429,-0.122,-445.435,92.102,386.413,0,0,0,
,-1.009,0.08,-0.026,-499.268,244.018,456.665,0,0,0,
,-1.008,-0.188,0.129,-647.583,352.234,442.566,0,0,0,
,-0.981,-0.32,0.408,-798.462,412.17,366.577,0,0,0,
,-0.933,-0.374,0.673,-861.084,432.739,185.974,0,0,0,
,-0.801,-0.163,0.803,-823.67,404.724,0.244,0,0,0,
,-0.604,0.044,0.952,-572.815,362.793,-243.592,0,0,0,
,-0.461,0.199,1.055,-131.653,315.796,-347.229,0,0,0,
,-0.27,0.383,1.324,303.65,164.367,-374.268,0,0,0,
,-0.246,0.41,1.521,607.91,9.582,-463.196,0,0,0,
,-0.204,0.512,1.488,679.992,-98.45,-434.327,0,0,0,
,-0.176,0.699,1.333,678.772,-215.271,-349.61,0,0,0,
,-0.32,0.78,1.073,790.344,-304.2,-249.146,0,0,0,
,-0.513,0.612,0.85,899.17,-330.933,-212.281,0,0,0,
,-0.689,0.444,0.721,763.733,-349.793,-168.396,0,0,0,
,-0.821,0.37,0.537,414.611,-332.703,-99.549,0,0,0,
